Time, AccX1, AccY1, AccZ1, AccX2, AccY2, AccZ2, AngVelX1, AngVelY1, AngVelZ1, AngVelX2, AngVelY2, AngVelZ2
09:12:29.224, 0.0,0.0,0.0,0.0,0.0,0.0,0.0,0.0,0.0,0.0,0.0,0.0
09:12:29.328, 0.16748046875,-0.0478515625,9.766503906250001,0.11005859375,0.0095703125,9.780859375,0.0,0.0,0.0,0.0,0.0,0.0
09:12:29.439, 0.16748046875,-0.04306640625,9.780859375,0.10527343750000001,-0.0095703125,9.780859375,0.0,0.0,0.0,0.0,0.0,0.0
09:12:29.548, 0.19140625,-0.052636718750000006,9.771289062500001,0.1244140625,-0.019140625,9.76171875,0.0,0.0,0.0,0.0,0.0,0.0
09:12:29.656, 0.17705078125,-0.03828125,9.76171875,0.13876953125000002,-0.0095703125,9.75693359375,0.0,0.0,0.0,0.0,0.0,0.0
09:12:29.766, 0.16748046875,-0.052636718750000006,9.77607421875,0.153125,0.014355468750000001,9.771289062500001,0.0,0.0,0.0,0.0,0.0,0.0
09:12:29.874, 0.18183593750000002,-0.03828125,9.766503906250001,0.13398437500000002,0.00478515625,9.7521484375,0.0,0.0,0.0,0.0,0.0,0.0
09:12:29.982, 0.17705078125,-0.03828125,9.771289062500001,0.13398437500000002,0.0,9.766503906250001,0.0,0.0,0.0,0.0,0.0,0.0
09:12:30.092, 0.172265625,-0.052636718750000006,9.795214843750001,0.13398437500000002,-0.014355468750000001,9.771289062500001,0.0,0.0,0.0,0.0,0.0,0.0
09:12:30.201, 0.172265625,-0.052636718750000006,9.78564453125,0.13398437500000002,-0.00478515625,9.77607421875,0.0,0.0,0.0,0.0,0.0,0.0
09:12:30.310, 0.16269531250000002,-0.04306640625,9.77607421875,0.1244140625,-0.033496093750000004,9.771289062500001,-0.3662109375,0.6103515625,0.0,0.3662109375,0.30517578125,0.06103515625
09:12:30.420, 0.16748046875,-0.052636718750000006,9.780859375,0.11962890625000001,-0.02392578125,9.771289062500001,0.0,-0.06103515625,0.0,-0.18310546875,-0.1220703125,0.0
09:12:30.527, 0.172265625,-0.052636718750000006,9.78564453125,0.1435546875,-0.019140625,9.766503906250001,0.06103515625,0.0,-0.244140625,0.06103515625,0.0,0.18310546875
09:12:30.638, 0.172265625,-0.033496093750000004,9.78564453125,0.12919921875,-0.019140625,9.75693359375,0.0,0.06103515625,-0.06103515625,-0.1220703125,0.06103515625,0.0
09:12:30.746, 0.17705078125,-0.0478515625,9.76171875,0.1244140625,0.033496093750000004,9.771289062500001,0.06103515625,-0.18310546875,-0.06103515625,-0.06103515625,-0.1220703125,-0.06103515625
09:12:30.854, 0.18662109375000002,-0.03828125,9.766503906250001,0.153125,-0.028710937500000002,9.73779296875,-0.06103515625,0.0,-23.4375,0.18310546875,-0.244140625,-23.25439453125
09:12:30.962, 0.20576171875000002,0.028710937500000002,9.771289062500001,0.1435546875,-0.02392578125,9.795214843750001,0.06103515625,-0.1220703125,-10.92529296875,0.06103515625,-0.244140625,-10.68115234375
09:12:31.071, 0.1435546875,-0.11484375000000001,9.771289062500001,0.11005859375,0.06699218750000001,9.780859375,-0.30517578125,0.6103515625,-16.17431640625,0.9765625,0.6103515625,-16.11328125
09:12:31.181, 0.16748046875,-0.019140625,9.8095703125,0.12919921875,0.019140625,9.76171875,-0.06103515625,0.1220703125,-16.66259765625,-0.18310546875,-0.67138671875,-15.13671875
09:12:31.292, 0.19619140625,-0.00478515625,9.77607421875,0.11484375000000001,0.014355468750000001,9.790429687500001,0.244140625,-0.42724609375,-10.43701171875,0.1220703125,-0.18310546875,-10.6201171875
09:12:31.401, 0.18662109375000002,-0.028710937500000002,9.790429687500001,0.16269531250000002,-0.02392578125,9.77607421875,0.0,-0.06103515625,-6.53076171875,0.0,0.0,-6.2255859375
09:12:31.510, 0.21533203125000003,0.0095703125,9.78564453125,0.22490234375,-0.11484375000000001,9.766503906250001,0.244140625,-0.42724609375,-7.75146484375,-0.8544921875,-0.9765625,-6.8359375
09:12:31.619, 0.18662109375000002,-0.0478515625,9.76171875,0.11005859375,-0.052636718750000006,9.795214843750001,0.06103515625,-0.18310546875,-21.78955078125,-0.06103515625,-0.67138671875,-21.66748046875
09:12:31.729, 0.153125,0.014355468750000001,9.771289062500001,0.18183593750000002,0.03828125,9.766503906250001,0.0,-0.06103515625,-24.2919921875,0.1220703125,-0.30517578125,-17.2119140625
09:12:31.839, 0.16269531250000002,-0.033496093750000004,9.8,0.1244140625,0.0,9.78564453125,-0.18310546875,0.30517578125,-14.892578125,0.1220703125,-0.3662109375,-19.6533203125
09:12:31.948, 0.172265625,-0.0861328125,9.795214843750001,0.16269531250000002,-0.033496093750000004,9.780859375,0.18310546875,-0.1220703125,-10.31494140625,0.1220703125,-0.1220703125,-9.70458984375
09:12:32.059, 0.172265625,-0.033496093750000004,9.780859375,0.18183593750000002,0.0,9.780859375,0.1220703125,-0.1220703125,-15.380859375,-0.06103515625,-0.3662109375,-14.83154296875
09:12:32.169, 0.18183593750000002,-0.028710937500000002,9.780859375,0.21533203125000003,-0.0095703125,9.771289062500001,-0.18310546875,0.30517578125,-16.54052734375,-0.6103515625,-0.8544921875,-16.41845703125
09:12:32.277, 0.14833984375,-0.00478515625,9.8,0.153125,0.02392578125,9.790429687500001,0.06103515625,-0.18310546875,-17.51708984375,0.54931640625,0.54931640625,-17.4560546875
09:12:32.387, 0.172265625,-0.02392578125,9.795214843750001,0.19140625,-0.014355468750000001,9.75693359375,0.06103515625,0.0,-16.2353515625,0.0,-0.244140625,-12.63427734375
09:12:32.495, 0.18662109375000002,-0.019140625,9.8095703125,0.15791015625000002,-0.03828125,9.72822265625,0.0,0.0,-25.81787109375,0.0,-0.54931640625,-25.5126953125
09:12:32.604, 0.19619140625,0.019140625,9.80478515625,0.2009765625,0.02392578125,9.766503906250001,0.1220703125,0.1220703125,-29.4189453125,0.06103515625,-0.3662109375,-25.0244140625
09:12:32.715, 0.2201171875,0.019140625,9.78564453125,0.16269531250000002,-0.02392578125,9.780859375,0.0,-0.1220703125,-24.4140625,-0.18310546875,-0.732421875,-23.0712890625
09:12:32.824, 0.1435546875,0.06699218750000001,9.75693359375,0.11484375000000001,-0.028710937500000002,9.795214843750001,0.244140625,-0.42724609375,-20.44677734375,0.0,-0.244140625,-20.32470703125
09:12:32.933, 0.18183593750000002,0.0861328125,9.75693359375,0.19619140625,-0.06699218750000001,9.747363281250001,0.06103515625,-0.06103515625,-20.20263671875,0.244140625,-0.30517578125,-24.96337890625
09:12:33.043, 0.2201171875,0.08134765625000001,9.7521484375,0.17705078125,0.052636718750000006,9.780859375,-0.18310546875,0.1220703125,-33.50830078125,0.244140625,0.0,-31.92138671875
09:12:33.150, 0.21533203125000003,0.052636718750000006,9.7521484375,0.18662109375000002,-0.0478515625,9.814355468750001,0.0,-0.244140625,-35.58349609375,0.06103515625,-0.54931640625,-35.0341796875
09:12:33.258, 0.2009765625,0.03828125,9.8,0.22490234375,0.014355468750000001,9.76171875,0.8544921875,-0.8544921875,-29.78515625,-0.06103515625,-0.30517578125,-30.82275390625
09:12:33.367, 0.21533203125000003,0.04306640625,9.766503906250001,0.26318359375,0.019140625,9.780859375,0.3662109375,-0.1220703125,-31.982421875,-0.30517578125,-0.54931640625,-32.71484375
09:12:33.475, 0.20576171875000002,0.057421875000000004,9.75693359375,0.2009765625,-0.014355468750000001,9.723437500000001,0.30517578125,-0.48828125,-37.4755859375,-0.1220703125,-0.9765625,-44.49462890625
09:12:33.584, 0.22490234375,0.10527343750000001,9.75693359375,0.23447265625000002,-0.033496093750000004,9.742578125000001,-0.54931640625,0.06103515625,-52.3681640625,-0.42724609375,-1.46484375,-59.63134765625
09:12:33.692, 0.08134765625000001,0.06699218750000001,9.747363281250001,0.09091796875000001,0.0,9.75693359375,-0.6103515625,-0.18310546875,-62.80517578125,0.0,-0.91552734375,-60.6689453125
09:12:33.802, 0.30146484375000004,0.095703125,9.7521484375,0.2583984375,0.07177734375,9.76171875,0.42724609375,-0.1220703125,-55.17578125,0.0,-1.77001953125,-56.94580078125
09:12:33.912, 0.13398437500000002,0.0478515625,9.747363281250001,0.13876953125000002,0.0095703125,9.78564453125,1.15966796875,-0.18310546875,-73.2421875,0.0,-1.28173828125,-68.603515625
09:12:34.023, 0.2583984375,0.03828125,9.747363281250001,0.3349609375,0.057421875000000004,9.723437500000001,0.42724609375,-0.6103515625,-88.9892578125,0.18310546875,-1.64794921875,-86.0595703125
09:12:34.131, 0.13876953125000002,0.0861328125,9.77607421875,0.32060546875,-0.033496093750000004,9.68994140625,0.3662109375,-1.0986328125,-105.1025390625,-1.40380859375,-2.62451171875,-99.18212890625
09:12:34.240, 0.1244140625,0.16748046875,9.78564453125,0.33017578125,0.02392578125,9.72822265625,-0.244140625,0.06103515625,-61.03515625,0.48828125,-1.15966796875,-64.208984375
09:12:34.351, 0.14833984375,0.04306640625,9.78564453125,0.39716796875000004,-0.03828125,9.77607421875,0.6103515625,0.3662109375,-45.59326171875,0.42724609375,-1.708984375,-46.875
09:12:34.458, 0.0765625,0.09091796875000001,9.76171875,0.28232421875,0.17705078125,9.790429687500001,0.732421875,0.732421875,-43.27392578125,-0.244140625,-1.52587890625,-45.2880859375
09:12:34.568, 0.20576171875000002,0.16269531250000002,9.73779296875,0.2009765625,0.13398437500000002,9.8478515625,-0.42724609375,-0.8544921875,-45.83740234375,1.3427734375,-0.8544921875,-42.6025390625
09:12:34.677, 0.23925781250000003,0.14833984375,9.790429687500001,0.34453125,0.057421875000000004,9.92919921875,0.0,-0.91552734375,-46.56982421875,0.42724609375,-1.708984375,-53.1005859375
09:12:34.785, -0.19140625,-0.06220703125,9.76171875,0.16748046875,0.2009765625,9.795214843750001,1.52587890625,1.5869140625,-54.0771484375,-4.82177734375,-3.35693359375,-53.1005859375
09:12:34.896, -0.172265625,-0.019140625,9.766503906250001,0.23925781250000003,0.028710937500000002,9.843066406250001,0.91552734375,1.28173828125,-60.1806640625,1.708984375,-1.8310546875,-68.359375
09:12:35.005, 0.11005859375,0.12919921875,9.80478515625,0.29189453125000003,0.15791015625000002,9.838281250000001,0.1220703125,-0.67138671875,-65.61279296875,-1.03759765625,-1.5869140625,-65.49072265625
09:12:35.115, 0.052636718750000006,0.22490234375,9.790429687500001,0.37324218750000004,0.10527343750000001,9.78564453125,0.0,0.06103515625,-61.95068359375,-0.1220703125,-1.46484375,-61.46240234375
09:12:35.225, 0.03828125,0.2009765625,9.73779296875,0.21054687500000002,0.15791015625000002,9.78564453125,0.1220703125,-0.91552734375,-66.162109375,0.3662109375,-1.40380859375,-70.6787109375
09:12:35.333, 0.014355468750000001,0.10048828125,9.790429687500001,0.29189453125000003,0.18662109375000002,9.723437500000001,0.0,0.06103515625,-40.83251953125,-0.6103515625,-1.40380859375,-40.6494140625
09:12:35.441, -0.11962890625000001,0.06220703125,9.75693359375,0.29189453125000003,0.11005859375,9.795214843750001,-0.18310546875,0.1220703125,-31.005859375,0.79345703125,-0.1220703125,-29.541015625
09:12:35.551, 0.10048828125,0.10527343750000001,9.76171875,-0.033496093750000004,0.27753906250000004,9.7521484375,-0.18310546875,0.06103515625,-33.87451171875,0.3662109375,-0.42724609375,-31.79931640625
09:12:35.659, 0.07177734375,0.17705078125,9.7521484375,0.24404296875,0.2583984375,9.72822265625,0.54931640625,-0.54931640625,-78.4912109375,-0.8544921875,-1.77001953125,-69.15283203125
09:12:35.769, 0.11005859375,0.07177734375,9.8,0.2201171875,0.16748046875,9.742578125000001,0.3662109375,-0.67138671875,-77.81982421875,2.0751953125,1.0986328125,-55.17578125
09:12:35.877, 0.10048828125,0.15791015625000002,9.76171875,0.29189453125000003,0.16269531250000002,9.78564453125,1.220703125,-1.64794921875,-56.15234375,0.8544921875,0.42724609375,-47.30224609375
09:12:35.986, -0.0478515625,0.16748046875,9.7330078125,0.19619140625,0.27275390625,9.77607421875,0.79345703125,-1.28173828125,-44.43359375,6.65283203125,6.2255859375,-38.330078125
09:12:36.122, -0.24404296875,-0.23925781250000003,9.742578125000001,0.0478515625,0.16748046875,9.85263671875,0.0,-0.06103515625,-36.62109375,1.28173828125,0.0,-47.2412109375
09:12:36.236, -0.12919921875,-0.10048828125,9.75693359375,0.08134765625000001,0.22490234375,9.70908203125,-0.67138671875,0.732421875,-30.1513671875,2.197265625,1.3427734375,-36.92626953125
09:12:36.345, -0.11005859375,-0.033496093750000004,9.766503906250001,0.18183593750000002,0.26796875000000003,9.7521484375,0.1220703125,0.18310546875,-45.0439453125,0.30517578125,-0.3662109375,-41.6259765625
09:12:36.455, -0.03828125,-0.13398437500000002,9.77607421875,0.0478515625,0.17705078125,9.766503906250001,0.18310546875,-0.06103515625,-10.19287109375,0.30517578125,0.0,-17.08984375
09:12:36.565, 0.0,-0.00478515625,9.780859375,0.11962890625000001,0.20576171875000002,9.75693359375,0.0,0.0,0.06103515625,0.30517578125,0.1220703125,0.0
09:12:36.673, 0.019140625,-0.019140625,9.7330078125,0.19140625,0.16748046875,9.75693359375,0.0,0.0,-0.06103515625,0.0,-0.30517578125,0.0
09:12:36.783, 0.00478515625,0.0,9.76171875,0.12919921875,0.16269531250000002,9.7521484375,0.1220703125,-0.06103515625,0.06103515625,0.06103515625,-0.06103515625,0.0
09:12:36.891, 0.0095703125,0.00478515625,9.766503906250001,0.11484375000000001,0.16748046875,9.7521484375,-0.06103515625,0.0,0.0,0.0,0.0,0.0
09:12:37.001, -0.019140625,0.0,9.771289062500001,0.1435546875,0.19140625,9.75693359375,0.0,0.0,0.0,0.0,0.0,0.06103515625
09:12:37.110, -0.03828125,0.014355468750000001,9.780859375,0.1435546875,0.21533203125000003,9.76171875,0.0,0.06103515625,-0.1220703125,0.0,0.1220703125,0.1220703125
09:12:37.218, -0.0095703125,-0.00478515625,9.80478515625,0.15791015625000002,0.153125,9.73779296875,0.0,0.06103515625,0.18310546875,0.0,0.0,0.0
09:12:37.329, -0.0095703125,-0.019140625,9.780859375,0.15791015625000002,0.172265625,9.766503906250001,0.0,0.06103515625,0.1220703125,-0.06103515625,0.0,-0.06103515625
09:12:37.438, -0.033496093750000004,0.0,9.780859375,0.13876953125000002,0.16748046875,9.742578125000001,0.0,0.06103515625,0.0,-0.1220703125,0.06103515625,0.06103515625
09:12:37.548, -0.02392578125,0.00478515625,9.795214843750001,0.153125,0.172265625,9.75693359375,0.0,0.06103515625,0.1220703125,-0.06103515625,0.06103515625,-0.06103515625
09:12:37.654, -0.019140625,0.0,9.771289062500001,0.153125,0.17705078125,9.771289062500001,0.06103515625,0.0,-0.06103515625,0.0,0.0,0.0
09:12:37.765, -0.0095703125,-0.00478515625,9.8,0.14833984375,0.17705078125,9.78564453125,0.0,0.0,0.0,-0.1220703125,0.0,0.0
09:12:37.875, -0.02392578125,-0.00478515625,9.78564453125,0.1435546875,0.19140625,9.747363281250001,-0.06103515625,-0.06103515625,0.0,0.06103515625,0.06103515625,0.0
09:12:37.985, 1.06708984375,0.7991210937500001,9.704296875,0.8708984375000001,-0.784765625,9.4650390625,3.5400390625,-3.96728515625,50.6591796875,9.82666015625,13.671875,105.52978515625
09:12:38.094, -0.014355468750000001,0.0,9.766503906250001,0.6029296875000001,-0.033496093750000004,9.694726562500001,-0.3662109375,0.3662109375,-0.1220703125,-1.0986328125,-0.79345703125,0.1220703125
09:12:38.204, 0.0,0.0,9.780859375,0.172265625,0.22490234375,9.77607421875,0.06103515625,0.06103515625,0.0,-1.15966796875,-1.52587890625,0.18310546875
09:12:38.313, -0.0095703125,0.014355468750000001,9.780859375,0.16748046875,0.2201171875,9.83349609375,-0.1220703125,0.1220703125,0.1220703125,0.06103515625,0.18310546875,0.0
09:12:38.423, -0.00478515625,-0.019140625,9.8095703125,0.1435546875,0.22968750000000002,9.771289062500001,0.0,-0.06103515625,0.0,0.244140625,0.30517578125,0.0
09:12:38.532, -0.028710937500000002,0.0095703125,9.77607421875,0.13876953125000002,0.21533203125000003,9.75693359375,0.0,0.06103515625,-0.06103515625,0.42724609375,0.3662109375,0.0
09:12:38.639, 0.06699218750000001,0.10048828125,9.7521484375,0.028710937500000002,0.23925781250000003,9.75693359375,0.1220703125,-0.18310546875,-19.287109375,0.18310546875,0.1220703125,-1.89208984375
09:12:38.748, -0.033496093750000004,0.0095703125,9.780859375,0.11962890625000001,0.24404296875,9.742578125000001,0.0,0.1220703125,0.0,0.1220703125,0.1220703125,0.1220703125
09:12:38.859, -0.028710937500000002,0.04306640625,9.780859375,0.13876953125000002,0.2201171875,9.747363281250001,0.0,0.0,-0.18310546875,0.30517578125,0.42724609375,0.0
09:12:38.968, -0.03828125,-0.0095703125,9.7521484375,0.11962890625000001,0.2009765625,9.766503906250001,0.0,0.0,0.0,0.244140625,0.67138671875,0.0
09:12:39.077, 0.1244140625,-0.3541015625,9.78564453125,0.54072265625,-0.00478515625,9.9244140625,-0.30517578125,0.0,6.4697265625,8.6669921875,10.07080078125,9.3994140625
09:12:39.188, -0.019140625,0.15791015625000002,9.7521484375,0.15791015625000002,0.30625,9.8095703125,-0.8544921875,0.18310546875,10.55908203125,-2.99072265625,-3.2958984375,8.48388671875
09:12:39.299, -0.095703125,-0.057421875000000004,9.780859375,0.172265625,0.2009765625,9.866992187500001,-6.53076171875,-6.89697265625,1.89208984375,-5.615234375,-2.86865234375,4.8828125
09:12:39.406, 0.028710937500000002,0.033496093750000004,9.857421875,-0.14833984375,0.2201171875,9.88134765625,4.8828125,-7.32421875,6.53076171875,-5.06591796875,-0.8544921875,-3.84521484375
09:12:39.516, 0.02392578125,0.0861328125,9.795214843750001,-0.057421875000000004,0.26318359375,9.8287109375,4.21142578125,9.521484375,7.38525390625,7.8125,-3.11279296875,6.4697265625
09:12:39.625, -0.095703125,0.20576171875000002,9.747363281250001,0.34453125,0.28232421875,9.73779296875,20.1416015625,3.7841796875,5.79833984375,11.474609375,-20.32470703125,3.84521484375
09:12:39.734, 0.0478515625,0.6603515625,9.704296875,0.593359375,0.21054687500000002,9.910058593750001,17.15087890625,-9.58251953125,-3.7841796875,-5.43212890625,-15.2587890625,-4.5166015625
09:12:39.843, 0.3541015625,0.9139648437500001,9.981835937500001,1.0479492187500001,-0.24404296875,9.862207031250001,1.03759765625,-18.61572265625,17.27294921875,-4.82177734375,7.01904296875,12.39013671875
09:12:39.951, 0.3541015625,0.7751953125000001,10.512988281250001,0.55029296875,0.23925781250000003,9.398046875,-37.2314453125,22.3388671875,-1.03759765625,34.24072265625,20.81298828125,-1.3427734375
09:12:40.061, -0.287109375,-0.16269531250000002,9.579882812500001,0.7943359375000001,-0.23447265625000002,9.59423828125,-26.3671875,28.74755859375,1.220703125,45.2880859375,60.302734375,5.615234375
09:12:40.170, 0.401953125,0.7991210937500001,10.78095703125,0.6077148437500001,-0.516796875,10.01533203125,11.71875,-16.17431640625,10.43701171875,26.91650390625,11.1083984375,-1.0986328125
09:12:40.278, -0.42109375000000004,0.26796875000000003,9.30712890625,0.47373046875,0.6029296875000001,9.287988281250001,-19.22607421875,4.21142578125,22.8271484375,10.3759765625,11.16943359375,11.29150390625
09:12:40.387, -0.47373046875,-0.3349609375,9.790429687500001,-0.06220703125,0.42109375000000004,10.010546875000001,-10.8642578125,-1.15966796875,8.97216796875,-2.25830078125,10.009765625,6.8359375
09:12:40.498, -0.35888671875,-0.22490234375,10.23544921875,-0.18183593750000002,0.32060546875,10.163671875,-2.197265625,0.0,-1.03759765625,2.197265625,-0.42724609375,-0.67138671875
09:12:40.606, -0.5837890625000001,-0.5072265625000001,9.933984375000001,-0.49765625,1.0862304687500002,9.579882812500001,7.32421875,12.26806640625,3.173828125,11.23046875,-4.638671875,4.7607421875
09:12:40.715, -0.9857421875000001,-0.42109375000000004,9.60859375,-0.27753906250000004,0.9139648437500001,9.64208984375,3.173828125,-1.0986328125,8.60595703125,3.96728515625,-5.615234375,8.72802734375
09:12:40.824, -1.39248046875,-0.6603515625,9.4267578125,-0.21533203125000003,1.2154296875000001,9.627734375000001,11.16943359375,-6.77490234375,15.0146484375,4.69970703125,-12.14599609375,10.3759765625
09:12:40.932, -1.3685546875,-0.6220703125,9.359765625000001,-0.43544921875000003,1.6843750000000002,9.59423828125,4.21142578125,1.708984375,34.423828125,-3.7841796875,-4.94384765625,38.51318359375
09:12:41.043, -1.282421875,-0.26796875000000003,9.512890625,-0.19619140625,1.7130859375,9.58466796875,-11.41357421875,8.48388671875,51.26953125,0.8544921875,7.26318359375,52.734375
09:12:41.153, -1.1580078125000002,0.23447265625000002,9.80478515625,0.19619140625,1.5503906250000001,9.4458984375,-10.43701171875,12.3291015625,62.68310546875,16.357421875,18.37158203125,62.01171875
09:12:41.262, -0.7704101562500001,-0.18183593750000002,9.9244140625,-0.028710937500000002,1.20107421875,9.335839843750001,2.13623046875,-4.2724609375,63.720703125,0.48828125,1.40380859375,61.58447265625
09:12:41.371, -0.73212890625,0.11005859375,9.479394531250001,0.13398437500000002,0.43544921875000003,10.268945312500001,7.26318359375,8.60595703125,58.2275390625,21.17919921875,17.08984375,64.453125
09:12:41.479, -0.8230468750000001,0.5837890625000001,10.201953125000001,0.16748046875,0.9187500000000001,9.790429687500001,-8.36181640625,0.9765625,55.908203125,15.56396484375,10.1318359375,52.978515625
09:12:41.587, -1.10537109375,0.49765625,9.843066406250001,0.21533203125000003,1.1962890625,10.106250000000001,-3.90625,0.3662109375,49.98779296875,-3.23486328125,5.55419921875,48.76708984375
09:12:41.696, -1.1005859375,-0.14833984375,9.125292968750001,-0.1435546875,1.45947265625,8.86689453125,-4.39453125,4.21142578125,46.38671875,-2.8076171875,-3.2958984375,48.40087890625
09:12:41.806, 0.38759765625000003,0.45937500000000003,9.8095703125,0.8852539062500001,-0.41630859375,9.6181640625,4.8828125,-15.7470703125,38.330078125,-12.14599609375,-4.2724609375,37.17041015625
09:12:41.915, 1.0240234375000001,0.49765625,9.5224609375,0.708203125,-1.12451171875,10.1349609375,-4.638671875,-0.42724609375,20.32470703125,7.01904296875,-2.0751953125,17.02880859375
09:12:42.024, 1.5647460937500002,0.9091796875000001,10.087109375,1.1771484375,-1.2537109375000002,9.8478515625,3.11279296875,-1.0986328125,7.38525390625,6.7138671875,-3.72314453125,4.7607421875
09:12:42.132, 1.3589843750000001,1.35419921875,9.6181640625,1.64130859375,-0.97138671875,9.66123046875,1.220703125,5.0048828125,-9.521484375,-2.99072265625,-6.77490234375,-11.65771484375
09:12:42.243, 1.17236328125,0.8230468750000001,9.66123046875,1.1005859375,-0.87568359375,9.886132812500001,10.498046875,-7.2021484375,-24.47509765625,-10.8642578125,-11.8408203125,-23.8037109375
09:12:42.352, 1.0479492187500001,1.00966796875,9.8,1.2297851562500002,-0.7273437500000001,9.790429687500001,14.2822265625,-10.31494140625,-49.86572265625,-10.8642578125,-11.77978515625,-41.748046875
09:12:42.460, 0.8230468750000001,1.0383789062500002,9.766503906250001,1.2345703125,-0.64599609375,9.9435546875,22.5830078125,-22.64404296875,-52.06298828125,-18.00537109375,-19.34814453125,-52.734375
09:12:42.569, 0.6125,1.33984375,9.938769531250001,1.9332031250000001,-0.39716796875000004,9.8478515625,20.44677734375,-25.81787109375,-75.0732421875,-24.59716796875,-27.77099609375,-71.6552734375
09:12:42.676, 0.52158203125,1.3350585937500001,10.18759765625,1.88056640625,-0.33974609375000003,9.96748046875,12.26806640625,-18.6767578125,-78.30810546875,-10.25390625,-13.0615234375,-79.9560546875
09:12:42.785, -0.19619140625,1.378125,9.37412109375,1.7083007812500002,0.58857421875,9.091796875,17.63916015625,-15.44189453125,-81.54296875,-10.43701171875,-14.7705078125,-81.1767578125
09:12:42.894, -0.9331054687500001,1.7417968750000001,9.4171875,1.7657226562500001,1.3254882812500002,9.6181640625,7.99560546875,-21.42333984375,-66.5283203125,-25.390625,-11.23046875,-66.2841796875
09:12:43.005, -1.4068359375000001,1.1484375,9.4458984375,0.9331054687500001,1.7226562500000002,9.455468750000001,-3.662109375,-25.5126953125,-38.57421875,-17.27294921875,3.2958984375,-26.7333984375
09:12:43.112, -1.4690429687500002,0.7177734375,9.699511718750001,0.8613281250000001,1.6269531250000002,9.8095703125,-10.25390625,-16.357421875,-14.0380859375,-16.6015625,7.87353515625,-10.07080078125
09:12:43.222, -1.0000976562500001,1.129296875,10.010546875000001,1.1388671875,1.4786132812500001,10.029687500000001,-0.732421875,11.90185546875,24.658203125,6.2255859375,1.40380859375,27.03857421875
09:12:43.329, -0.765625,1.25849609375,9.8478515625,1.5886718750000002,0.8469726562500001,9.914843750000001,-0.18310546875,4.150390625,47.91259765625,4.5166015625,0.30517578125,49.8046875
09:12:43.438, -0.18662109375000002,1.40205078125,9.814355468750001,1.282421875,0.52158203125,9.795214843750001,1.03759765625,14.0380859375,59.5703125,13.73291015625,-0.67138671875,60.72998046875
09:12:43.547, 0.17705078125,1.3829101562500001,10.1158203125,1.7178710937500001,0.04306640625,10.149316406250001,3.7841796875,15.44189453125,70.61767578125,17.4560546875,-0.06103515625,70.556640625
09:12:43.656, 0.095703125,1.3302734375,10.21630859375,1.4642578125,0.13398437500000002,10.1828125,-5.31005859375,28.3203125,74.462890625,29.96826171875,11.8408203125,75.01220703125
09:12:43.765, 0.10527343750000001,1.1101562500000002,9.42197265625,1.05751953125,0.23447265625000002,9.34541015625,-10.3759765625,23.62060546875,69.39697265625,23.25439453125,16.6015625,68.29833984375
09:12:43.875, 0.85654296875,0.90439453125,10.245019531250001,1.3254882812500002,-0.9331054687500001,9.957910156250001,-16.4794921875,5.615234375,66.2841796875,12.51220703125,20.1416015625,62.98828125
09:12:43.983, 0.9905273437500001,0.784765625,10.010546875000001,1.0048828125,-0.80869140625,9.981835937500001,-15.9912109375,5.31005859375,55.5419921875,6.9580078125,17.02880859375,54.01611328125
09:12:44.092, 0.8948242187500001,0.80869140625,9.72822265625,0.8708984375000001,-0.6412109375,9.51767578125,-6.7138671875,5.615234375,42.17529296875,6.9580078125,8.85009765625,40.34423828125
09:12:44.201, 0.47373046875,1.02880859375,10.16845703125,1.30634765625,0.11484375000000001,9.723437500000001,-10.1318359375,1.8310546875,28.74755859375,16.2353515625,17.39501953125,33.50830078125
09:12:44.312, 0.46894531250000004,0.5790039062500001,10.20673828125,1.05751953125,-0.43544921875000003,10.221093750000001,-18.1884765625,6.40869140625,18.98193359375,6.77490234375,19.287109375,18.310546875
09:12:44.421, 1.36376953125,0.31582031250000003,8.8716796875,0.669921875,-1.378125,9.05830078125,14.5263671875,-18.798828125,4.57763671875,-20.44677734375,-16.90673828125,4.94384765625
09:12:44.530, 3.3926757812500004,-0.057421875000000004,9.646875000000001,0.37324218750000004,-3.3591796875,9.694726562500001,9.82666015625,-19.59228515625,8.4228515625,-18.00537109375,-11.04736328125,9.09423828125
09:12:44.640, 3.04814453125,0.9857421875000001,9.75693359375,0.7177734375,-1.665234375,6.904980468750001,-3.23486328125,-16.05224609375,7.9345703125,-68.359375,-50.59814453125,-53.8330078125
09:12:44.747, 0.82783203125,0.34453125,9.819140625000001,-0.64599609375,1.8422851562500002,3.9477539062500004,-15.19775390625,18.00537109375,-6.28662109375,-848.93798828125,-121.337890625,36.0107421875
09:12:44.858, 0.26796875000000003,-1.4451171875000002,9.0439453125,0.14833984375,1.0479492187500001,-1.703515625,-18.49365234375,44.43359375,17.15087890625,-944.4580078125,-143.00537109375,-56.0302734375
09:12:44.967, -0.87568359375,-1.1484375,9.938769531250001,0.36367187500000003,1.1771484375,-1.48818359375,2.38037109375,17.9443359375,3.60107421875,-924.86572265625,-54.5654296875,-113.83056640625
09:12:45.078, -1.244140625,0.19619140625,9.9244140625,3.7994140625000004,1.0383789062500002,-1.9571289062500001,63.5986328125,-8.36181640625,-7.75146484375,-875.0,588.92822265625,-863.09814453125
09:12:45.188, -2.2155273437500003,-0.9091796875000001,7.522265625,3.2012695312500004,-0.55029296875,-1.5743164062500001,21.3623046875,-10.1318359375,57.31201171875,-485.04638671875,940.00244140625,-811.1572265625
09:12:45.296, -0.1244140625,-0.6029296875000001,9.01044921875,-1.1580078125000002,-0.37802734375,-1.40205078125,5.55419921875,-23.86474609375,33.5693359375,771.66748046875,733.3984375,-774.96337890625
09:12:45.406, 1.35419921875,0.09091796875000001,12.159082031250001,-1.5886718750000002,-4.129589843750001,-0.68427734375,-112.1826171875,-2.62451171875,31.92138671875,279.052734375,609.43603515625,-518.9208984375
09:12:45.514, -0.8326171875,-2.56005859375,10.37421875,0.057421875000000004,0.31582031250000003,10.005761718750001,-8.60595703125,27.03857421875,-44.921875,0.244140625,0.06103515625,0.244140625
09:12:45.622, -0.58857421875,-1.6604492187500002,9.35498046875,-0.0765625,0.019140625,9.790429687500001,24.59716796875,17.822265625,-46.38671875,-0.30517578125,0.1220703125,0.0
09:12:45.732, 0.784765625,-1.320703125,10.632617187500001,-0.07177734375,0.019140625,9.77607421875,38.2080078125,-37.2314453125,-65.185546875,-0.06103515625,0.0,0.0
09:12:45.840, 0.7034179687500001,-1.6508789062500002,8.91953125,0.669921875,0.77998046875,7.704101562500001,11.8408203125,-14.0380859375,-25.2685546875,51.81884765625,-25.87890625,37.53662109375
09:12:45.949, 1.703515625,-1.3494140625000002,9.599023437500001,-0.0861328125,2.13896484375,8.694628906250001,25.20751953125,-17.333984375,-17.63916015625,2.44140625,44.0673828125,10.55908203125
09:12:46.059, 1.9714843750000002,-0.56943359375,9.34541015625,0.8948242187500001,0.0861328125,10.25458984375,3.41796875,2.25830078125,-10.3759765625,-87.158203125,-126.0986328125,-42.48046875
09:12:46.168, 2.583984375,-0.29189453125000003,9.9052734375,-0.052636718750000006,-5.5220703125,20.07373046875,13.24462890625,-10.6201171875,-31.3720703125,-195.25146484375,13.73291015625,147.27783203125
09:12:46.277, 1.9571289062500001,0.06220703125,9.388476562500001,-4.53154296875,-7.455273437500001,12.680664062500002,6.28662109375,-3.7841796875,-37.65869140625,-120.54443359375,-72.265625,-49.25537109375
09:12:46.388, 1.7226562500000002,-0.61728515625,9.579882812500001,-6.335546875,-7.383496093750001,5.44072265625,9.58251953125,1.15966796875,-39.73388671875,-149.5361328125,-18.4326171875,-78.91845703125
09:12:46.496, 1.92841796875,0.43066406250000006,9.503320312500001,3.7707031250000003,0.440234375,2.3399414062500004,9.1552734375,-4.39453125,0.91552734375,49.9267578125,215.27099609375,-137.02392578125
09:12:46.605, 2.8232421875,1.2919921875,10.460351562500001,1.73701171875,-1.5599609375,8.9865234375,6.8359375,7.9345703125,-3.90625,-0.79345703125,118.896484375,-87.0361328125
09:12:46.714, 2.2298828125,1.3302734375,9.68994140625,-0.31582031250000003,-0.8900390625000001,8.144335937500001,-4.08935546875,17.02880859375,-15.5029296875,87.0361328125,-7.2021484375,-70.61767578125
09:12:46.821, 1.225,0.2966796875,9.27841796875,1.4068359375000001,-1.2537109375000002,9.914843750000001,-4.08935546875,38.87939453125,-27.03857421875,57.06787109375,-25.7568359375,42.236328125
09:12:46.932, -3.9860351562500003,-1.8901367187500002,-7.3739257812500005,0.97138671875,-1.0000976562500001,9.953125,131.40869140625,-102.9052734375,-3.60107421875,-26.4892578125,34.97314453125,-6.591796875
09:12:47.042, 1.0814453125,0.28232421875,10.9005859375,0.7751953125000001,-0.9666015625000001,10.83837890625,-59.63134765625,73.30322265625,23.193359375,73.05908203125,60.48583984375,23.01025390625
09:12:47.151, -0.29189453125000003,-1.4929687500000002,9.699511718750001,-1.473828125,0.71298828125,9.651660156250001,-58.65478515625,11.77978515625,25.93994140625,7.4462890625,57.6171875,24.35302734375
09:12:47.260, -1.0718750000000001,-2.7706054687500004,8.747265625,-1.435546875,0.7369140625,8.63720703125,-67.07763671875,14.0380859375,31.494140625,11.1083984375,69.88525390625,-11.962890625
09:12:47.369, -0.92353515625,-2.7897460937500003,8.57978515625,-2.89501953125,0.8708984375000001,8.49365234375,-23.01025390625,-9.58251953125,-11.65771484375,-7.8125,22.39990234375,-89.78271484375
09:12:47.477, -0.8661132812500001,-3.4644531250000004,9.364550781250001,-3.2969726562500004,2.36865234375,9.599023437500001,1.15966796875,-4.45556640625,-6.77490234375,-12.451171875,-8.1787109375,147.03369140625
09:12:47.587, -0.22490234375,-3.40703125,9.096582031250001,-1.8997070312500002,1.3015625000000002,9.83349609375,-9.58251953125,-8.544921875,-16.4794921875,17.88330078125,17.2119140625,6.8359375
09:12:47.696, 1.512109375,-1.3829101562500001,9.053515625000001,-3.7419921875,0.8661132812500001,8.670703125000001,-47.119140625,-26.9775390625,-25.0244140625,-30.57861328125,42.3583984375,-26.67236328125
09:12:47.805, 1.6173828125,-9.42197265625,10.221093750000001,-0.34453125,-1.07666015625,13.786035156250001,-103.33251953125,59.6923828125,-57.18994140625,97.83935546875,24.5361328125,-117.49267578125
09:12:47.913, 1.8279296875000002,-4.33056640625,7.139453125,-2.3734375,-3.09599609375,7.527050781250001,-12.8173828125,39.794921875,-24.23095703125,41.19873046875,-4.638671875,-52.8564453125
09:12:48.021, 0.5550781250000001,-4.1200195312500005,7.88115234375,-3.90947265625,-0.6077148437500001,8.06298828125,1.0986328125,-19.4091796875,-51.94091796875,-25.146484375,10.55908203125,-56.15234375
09:12:48.131, 1.2058593750000002,-5.34501953125,8.823828125,-5.11533203125,-0.64599609375,8.551074218750001,-23.49853515625,-43.76220703125,-82.94677734375,-42.48046875,23.25439453125,-72.1435546875
09:12:48.240, 1.39248046875,-3.8711914062500004,9.37412109375,-3.0098632812500004,-2.34951171875,8.36923828125,27.587890625,-5.615234375,-31.92138671875,13.18359375,-2.74658203125,-64.14794921875
09:12:48.349, 0.7895507812500001,-3.4740234375,8.22568359375,-3.311328125,-1.052734375,7.68974609375,23.3154296875,38.02490234375,11.16943359375,37.41455078125,-23.74267578125,-23.49853515625
09:12:48.456, 1.0623046875000002,-4.5985351562500005,9.742578125000001,-4.92392578125,-1.473828125,9.704296875,9.21630859375,21.17919921875,-3.2958984375,26.85546875,3.47900390625,1.15966796875
09:12:48.567, 1.1962890625,-5.1392578125,9.1587890625,-5.0435546875,-1.20107421875,9.125292968750001,-8.056640625,12.3291015625,-5.9814453125,13.427734375,9.1552734375,-4.39453125
09:12:48.675, 1.8422851562500002,-4.8856445312500005,9.029589843750001,-3.2443359375000003,-0.8182617187500001,8.72333984375,-33.935546875,3.47900390625,-10.498046875,17.02880859375,-22.27783203125,12.8173828125
09:12:48.786, 0.9905273437500001,-3.64150390625,8.823828125,-3.9381835937500003,-2.95244140625,8.455371093750001,11.8408203125,-3.5400390625,9.58251953125,12.20703125,-36.31591796875,5.126953125
09:12:48.896, 0.31582031250000003,-4.488476562500001,8.785546875000001,-2.8854492187500003,-0.37802734375,8.976953125000001,27.52685546875,-15.19775390625,27.7099609375,7.26318359375,-12.451171875,26.30615234375
09:12:49.004, 0.97138671875,-3.19169921875,9.77607421875,-2.9380859375000004,-1.7322265625000002,9.321484375,36.62109375,10.07080078125,22.705078125,4.69970703125,-34.5458984375,20.1416015625
09:12:49.113, 0.45458984375000006,-1.2058593750000002,9.45068359375,-1.26806640625,-0.3541015625,9.412402343750001,71.22802734375,13.36669921875,5.06591796875,11.5966796875,-77.0263671875,9.94873046875
09:12:49.223, 0.095703125,-0.5837890625000001,9.460253906250001,-0.5359375000000001,0.23925781250000003,9.431542968750001,49.01123046875,16.2353515625,-7.32421875,17.333984375,-48.095703125,-4.33349609375
09:12:49.333, 0.21533203125000003,1.05751953125,9.742578125000001,1.378125,0.22490234375,9.80478515625,-41.3818359375,-7.568359375,17.4560546875,-6.65283203125,36.0107421875,15.56396484375
09:12:49.440, 1.3015625000000002,0.6603515625,10.661328125,-1.40205078125,-0.80869140625,10.6421875,-58.89892578125,0.0,9.21630859375,21.728515625,44.86083984375,-13.18359375
09:12:49.551, -3.8520507812500004,-8.6037109375,3.0625,-10.14453125,5.5220703125,2.5744140625000003,111.328125,-71.533203125,107.421875,-51.8798828125,-96.19140625,106.38427734375
09:12:49.659, 7.4457031250000005,17.303125,14.240625000000001,14.575585937500001,-7.393066406250001,13.661621093750002,95.458984375,-20.32470703125,81.298828125,-30.6396484375,-93.20068359375,103.33251953125
09:12:49.768, 5.9814453125,12.7189453125,8.335742187500001,15.221582031250001,-5.5986328125,9.551171875000001,-41.44287109375,35.94970703125,-192.68798828125,36.62109375,27.9541015625,-179.13818359375
09:12:49.877, 2.4356445312500004,-11.278613281250001,2.296875,-38.271679687500004,-2.3877929687500004,6.4216796875,-86.24267578125,30.029296875,-198.974609375,-33.26416015625,-24.169921875,-73.974609375
09:12:49.985, 6.83798828125,-3.16298828125,6.87626953125,-21.7724609375,3.2730468750000004,1.6987304687500002,144.287109375,-101.98974609375,257.87353515625,-40.34423828125,-14.70947265625,179.50439453125
09:12:50.096, 11.441308593750001,34.611035156250004,16.3173828125,30.141699218750002,-12.58017578125,17.628515625000002,84.28955078125,71.22802734375,69.51904296875,47.119140625,-80.01708984375,128.84521484375
09:12:50.205, 8.474511718750001,5.7469726562500005,4.6990234375,8.65634765625,-9.388476562500001,5.5077148437500005,-93.1396484375,62.31689453125,-256.16455078125,56.884765625,81.72607421875,-252.86865234375
09:12:50.313, 2.03369140625,-20.58095703125,4.39755859375,-16.0111328125,-2.15810546875,3.8185546875000003,-11.90185546875,-5.0048828125,-192.5048828125,4.69970703125,39.61181640625,-206.35986328125
09:12:50.422, -1.53603515625,-14.51337890625,4.58896484375,-16.743261718750002,2.583984375,4.608105468750001,47.119140625,-43.02978515625,175.35400390625,-29.9072265625,-24.5361328125,155.2734375
09:12:50.533, 9.622949218750001,6.723144531250001,12.039453125000001,19.7626953125,-10.0392578125,14.676074218750001,71.71630859375,-54.74853515625,224.30419921875,3.2958984375,-18.00537109375,169.37255859375
09:12:50.641, 8.29267578125,12.919921875000002,5.9862304687500005,17.020800781250003,-7.694531250000001,7.0389648437500005,-98.57177734375,28.74755859375,-238.34228515625,28.62548828125,75.439453125,-226.62353515625
09:12:50.749, 4.28271484375,-8.84296875,5.09619140625,-9.4171875,-5.6177734375,5.32109375,-151.2451171875,16.11328125,-207.763671875,18.37158203125,149.10888671875,-222.900390625
09:12:50.860, 2.1246093750000004,-10.938867187500001,9.091796875,-5.1296875,-1.1197265625000001,9.287988281250001,-12.63427734375,-5.18798828125,-94.23828125,-4.33349609375,-0.06103515625,-110.41259765625
09:12:50.971, 1.1819335937500002,-1.03359375,9.3501953125,-0.73212890625,-0.2201171875,9.029589843750001,-3.84521484375,-41.748046875,-63.232421875,-28.86962890625,14.09912109375,-54.6875
09:12:51.080, 1.11494140625,-2.49306640625,9.938769531250001,-1.4546875000000001,-0.06699218750000001,9.398046875,-24.35302734375,-2.38037109375,-38.39111328125,2.3193359375,14.6484375,-42.96875
09:12:51.190, 2.2155273437500003,-1.5025390625000001,10.173242187500001,-1.3733398437500002,-2.0193359375,10.173242187500001,-22.5830078125,-58.349609375,-40.46630859375,-71.4111328125,26.30615234375,-39.0625
09:12:51.300, 1.77529296875,-1.3876953125,9.704296875,-1.49775390625,-1.7083007812500002,9.957910156250001,1.28173828125,-8.36181640625,-52.67333984375,-10.6201171875,3.47900390625,-49.13330078125
09:12:51.409, 2.4404296875,-1.512109375,10.14453125,-1.6030273437500002,-2.2155273437500003,9.92919921875,3.11279296875,-9.3994140625,-51.20849609375,-10.19287109375,-5.06591796875,-56.396484375
09:12:51.519, 3.6797851562500004,-1.4451171875000002,9.6373046875,-1.10537109375,-3.4118164062500003,9.579882812500001,6.40869140625,-6.16455078125,-47.42431640625,12.451171875,-19.8974609375,-39.48974609375
09:12:51.627, 3.90947265625,-1.990625,9.216210937500001,-3.02421875,-2.65576171875,8.57978515625,10.498046875,-24.90234375,-42.8466796875,14.95361328125,-4.2724609375,-31.005859375
09:12:51.735, 2.162890625,-0.440234375,9.512890625,-0.9570312500000001,-2.583984375,9.474609375,-30.09033203125,61.03515625,4.94384765625,60.60791015625,27.52685546875,0.8544921875
09:12:51.844, 0.61728515625,-0.7369140625,9.96748046875,-0.440234375,-1.35419921875,10.058398437500001,-5.55419921875,88.19580078125,-4.150390625,65.97900390625,-0.42724609375,-64.453125
09:12:51.955, -0.32060546875,0.41152343750000003,10.077539062500001,-0.153125,0.7369140625,9.6181640625,5.126953125,6.89697265625,-40.46630859375,6.9580078125,-9.33837890625,-31.73828125
09:12:52.065, 0.1244140625,0.18183593750000002,9.5607421875,1.1005859375,-1.30634765625,9.766503906250001,2.44140625,13.48876953125,1.77001953125,-33.14208984375,4.7607421875,10.6201171875
09:12:52.172, 1.052734375,-0.14833984375,9.80478515625,0.30146484375000004,-1.22021484375,9.8,9.3994140625,-7.26318359375,8.544921875,-6.40869140625,-5.126953125,5.126953125
09:12:52.280, 1.34462890625,0.06220703125,9.60859375,0.2201171875,-0.9570312500000001,9.64208984375,-2.62451171875,-6.591796875,-0.1220703125,5.31005859375,0.0,3.41796875
09:12:52.389, 0.8517578125,0.014355468750000001,9.910058593750001,0.17705078125,-0.669921875,9.75693359375,1.220703125,11.90185546875,15.0146484375,15.7470703125,-0.1220703125,14.6484375
09:12:52.499, 0.20576171875000002,-0.028710937500000002,9.962695312500001,-0.20576171875000002,-0.9953125,9.8,3.23486328125,-12.0849609375,-12.0849609375,-4.8828125,4.0283203125,-6.77490234375
09:12:52.607, 0.6507812500000001,-0.03828125,9.862207031250001,0.25361328125000004,-0.16748046875,10.0009765625,0.48828125,-18.4326171875,-19.83642578125,-17.7001953125,-0.30517578125,-18.310546875
09:12:52.714, -0.11962890625000001,0.16748046875,9.9435546875,-1.7178710937500001,-0.17705078125,11.9341796875,0.48828125,144.6533203125,5.615234375,-78.06396484375,-77.2705078125,16.11328125
09:12:52.823, -0.09091796875000001,-0.45937500000000003,9.72822265625,0.08134765625000001,0.095703125,9.80478515625,-5.18798828125,1.77001953125,0.0,2.86865234375,2.99072265625,-0.06103515625
09:12:52.932, 0.08134765625000001,-0.10048828125,9.790429687500001,0.0478515625,0.12919921875,9.780859375,-0.1220703125,0.18310546875,0.18310546875,0.0,-0.06103515625,0.06103515625
09:12:53.040, 0.09091796875000001,-0.019140625,9.8,0.052636718750000006,0.11962890625000001,9.790429687500001,0.0,0.0,-0.06103515625,0.0,-0.18310546875,0.0
09:12:53.148, 0.11484375000000001,-0.03828125,9.790429687500001,0.014355468750000001,0.10527343750000001,9.78564453125,-0.06103515625,-0.1220703125,0.06103515625,0.0,0.0,0.0
09:12:53.257, 0.0861328125,-0.04306640625,9.77607421875,0.04306640625,0.11962890625000001,9.795214843750001,0.06103515625,0.06103515625,0.06103515625,0.06103515625,0.0,0.244140625
09:12:53.365, 0.0765625,-0.06220703125,9.77607421875,0.052636718750000006,0.11962890625000001,9.771289062500001,0.0,0.1220703125,-0.1220703125,0.06103515625,0.0,-0.06103515625
09:12:53.474, 0.09091796875000001,-0.03828125,9.766503906250001,0.052636718750000006,0.09091796875000001,9.8,0.0,0.18310546875,0.0,-0.18310546875,-0.18310546875,0.0
