Time, AccX1, AccY1, AccZ1, AccX2, AccY2, AccZ2, AngVelX1, AngVelY1, AngVelZ1, AngVelX2, AngVelY2, AngVelZ2, AngX1, AngY1, AngZ1, AngX2, AngY2, AngZ2
17:48:03.781, 0.0,0.0,9.80478515625,0.0,0.0,0.0,0.0,0.0,0.0,0.0,0.0,0.0,0.0,0.0,0.0,0.0,0.0,0.0
17:48:03.895, 0.0,0.0,9.8,0.0095703125,-0.033496093750000004,9.862207031250001,0.0,0.0,0.0,-0.1220703125,-0.42724609375,0.06103515625,-0.076904296875,0.1922607421875,-83.0181884765625,-0.1922607421875,-0.4779052734375,-101.0247802734375
17:48:04.009, -0.0095703125,-0.0095703125,9.8,-0.02392578125,0.028710937500000002,9.78564453125,0.0,0.0,0.0,-0.06103515625,-0.244140625,-0.06103515625,-0.076904296875,0.1922607421875,-83.0181884765625,-0.1922607421875,-0.4779052734375,-101.0247802734375
17:48:04.125, -0.0095703125,0.0,9.78564453125,-0.00478515625,0.0,9.80478515625,0.0,0.0,0.0,0.0,-0.18310546875,0.0,-0.087890625,0.1812744140625,-83.045654296875,-0.1922607421875,-0.4779052734375,-101.0302734375
17:48:04.228, 0.0,0.0095703125,9.795214843750001,0.019140625,0.0,9.790429687500001,0.0,0.0,0.0,-0.1220703125,-0.244140625,0.0,-0.087890625,0.1812744140625,-83.045654296875,-0.1922607421875,-0.4779052734375,-101.0302734375
17:48:04.329, -0.0095703125,-0.0095703125,9.790429687500001,0.00478515625,-0.0095703125,9.76171875,0.0,0.0,0.0,-0.1220703125,-0.18310546875,-0.1220703125,-0.0823974609375,0.1812744140625,-83.045654296875,-0.1922607421875,-0.4779052734375,-101.0302734375
17:48:04.441, -0.019140625,0.0095703125,9.77607421875,-0.0095703125,0.033496093750000004,9.780859375,0.0,0.0,0.0,-0.06103515625,-0.3662109375,0.06103515625,-0.087890625,0.1812744140625,-83.045654296875,-0.1922607421875,-0.4779052734375,-101.0302734375
17:48:04.545, -0.02392578125,0.0,9.8095703125,0.0,0.0095703125,9.80478515625,0.0,0.0,0.0,-0.06103515625,-0.244140625,0.0,-0.0823974609375,0.1812744140625,-83.045654296875,-0.1922607421875,-0.4779052734375,-101.0302734375
17:48:04.645, 0.0,0.0,9.8,0.0,0.0,9.790429687500001,0.0,0.0,0.0,-0.1220703125,-0.3662109375,0.0,-0.0823974609375,0.1812744140625,-83.045654296875,-0.1922607421875,-0.4779052734375,-101.0302734375
17:48:04.760, -0.0095703125,0.014355468750000001,9.780859375,-0.00478515625,0.0,9.790429687500001,0.0,0.0,0.0,0.0,-0.3662109375,0.0,-0.0823974609375,0.1812744140625,-83.045654296875,-0.186767578125,-0.4779052734375,-101.0302734375
17:48:04.877, -0.00478515625,0.0,9.766503906250001,0.0,0.0,9.80478515625,0.0,0.0,0.0,-0.06103515625,-0.30517578125,-0.06103515625,-0.0823974609375,0.1812744140625,-83.045654296875,-0.186767578125,-0.4779052734375,-101.0357666015625
17:48:04.978, 0.0,0.00478515625,9.780859375,-0.00478515625,0.0,9.814355468750001,0.0,0.0,0.0,-0.06103515625,-0.244140625,0.0,-0.0823974609375,0.1812744140625,-83.045654296875,-0.186767578125,-0.4779052734375,-101.0357666015625
17:48:05.092, 0.0,0.0095703125,9.76171875,-0.00478515625,-0.019140625,9.819140625000001,0.0,0.0,0.0,-0.06103515625,-0.18310546875,0.0,-0.0823974609375,0.1812744140625,-83.045654296875,-0.186767578125,-0.4779052734375,-101.0357666015625
17:48:05.194, -0.019140625,0.014355468750000001,9.8,-0.00478515625,0.028710937500000002,9.8,0.0,0.0,0.0,-0.06103515625,-0.3662109375,-0.06103515625,-0.0823974609375,0.186767578125,-83.045654296875,-0.186767578125,-0.4779052734375,-101.0357666015625
17:48:05.296, 0.0,0.0,9.795214843750001,-0.00478515625,0.0095703125,9.8,0.0,0.0,0.0,-0.06103515625,-0.244140625,0.0,-0.0823974609375,0.186767578125,-83.045654296875,-0.1812744140625,-0.4779052734375,-101.041259765625
17:48:05.397, 0.0095703125,0.0,9.814355468750001,0.0095703125,-0.014355468750000001,9.80478515625,0.0,0.0,0.0,0.0,-0.30517578125,0.0,-0.0823974609375,0.186767578125,-83.045654296875,-0.1812744140625,-0.4833984375,-101.041259765625
17:48:05.511, -0.0095703125,0.0,9.795214843750001,-0.00478515625,0.028710937500000002,9.82392578125,0.0,0.0,0.0,0.0,-0.30517578125,0.0,-0.0823974609375,0.186767578125,-83.045654296875,-0.186767578125,-0.4833984375,-101.0467529296875
17:48:05.612, -0.014355468750000001,0.0,9.771289062500001,-0.0095703125,0.00478515625,9.790429687500001,0.0,0.0,0.0,0.0,-0.1220703125,-0.06103515625,-0.0823974609375,0.186767578125,-83.045654296875,-0.186767578125,-0.4833984375,-101.0467529296875
17:48:05.712, -0.019140625,0.0,9.819140625000001,0.0,0.0095703125,9.8,0.0,0.0,0.0,-0.06103515625,-0.06103515625,-0.1220703125,-0.0823974609375,0.186767578125,-83.045654296875,-0.186767578125,-0.4833984375,-101.05224609375
17:48:05.825, 0.0,0.00478515625,9.80478515625,-0.00478515625,0.02392578125,9.819140625000001,0.0,0.0,0.0,-0.06103515625,-0.06103515625,0.0,-0.0823974609375,0.186767578125,-83.045654296875,-0.1812744140625,-0.4833984375,-101.05224609375
17:48:05.926, -0.019140625,-0.014355468750000001,9.795214843750001,-0.00478515625,-0.00478515625,9.819140625000001,0.0,0.0,0.0,0.0,-0.18310546875,0.0,-0.0823974609375,0.186767578125,-83.045654296875,-0.1812744140625,-0.4833984375,-101.05224609375
17:48:06.042, -0.00478515625,0.014355468750000001,9.8095703125,0.00478515625,0.0,9.8,0.0,0.0,0.0,-0.06103515625,-0.06103515625,0.0,-0.0823974609375,0.186767578125,-83.045654296875,-0.186767578125,-0.4833984375,-101.05224609375
17:48:06.157, -0.00478515625,0.0,9.795214843750001,-0.0095703125,-0.0095703125,9.8287109375,0.0,0.0,0.0,0.0,-0.1220703125,0.06103515625,-0.0823974609375,0.186767578125,-83.045654296875,-0.186767578125,-0.4833984375,-101.05224609375
17:48:06.258, 0.00478515625,0.0,9.80478515625,0.014355468750000001,0.014355468750000001,9.8095703125,0.0,0.0,0.0,0.0,0.0,-0.06103515625,-0.0823974609375,0.1812744140625,-83.045654296875,-0.186767578125,-0.4833984375,-101.0577392578125
17:48:06.360, -0.03828125,0.028710937500000002,9.795214843750001,0.0,0.028710937500000002,9.814355468750001,0.0,0.0,0.0,0.06103515625,-0.1220703125,0.0,-0.0823974609375,0.1812744140625,-83.045654296875,-0.1812744140625,-0.4833984375,-101.0577392578125
17:48:06.475, 0.0,0.019140625,9.790429687500001,0.0,-0.014355468750000001,9.819140625000001,0.0,0.0,0.0,0.0,-0.1220703125,0.06103515625,-0.0823974609375,0.1812744140625,-83.045654296875,-0.1812744140625,-0.4888916015625,-101.063232421875
17:48:06.590, -0.0095703125,-0.00478515625,9.814355468750001,-0.0095703125,0.0,9.819140625000001,0.0,0.0,0.0,0.1220703125,-0.244140625,0.0,-0.0823974609375,0.1812744140625,-83.045654296875,-0.1812744140625,-0.4888916015625,-101.063232421875
17:48:06.692, 0.0,-0.0095703125,9.771289062500001,-0.00478515625,0.02392578125,9.819140625000001,0.0,0.0,0.0,-0.18310546875,-0.1220703125,0.0,-0.0823974609375,0.1812744140625,-83.045654296875,-0.17578125,-0.4833984375,-101.063232421875
17:48:06.794, -0.00478515625,0.0,9.795214843750001,0.0,0.0,9.790429687500001,0.0,0.0,0.0,-0.1220703125,-0.244140625,0.06103515625,-0.0823974609375,0.1812744140625,-83.045654296875,-0.17578125,-0.4833984375,-101.063232421875
17:48:06.894, -0.0095703125,-0.014355468750000001,9.78564453125,0.019140625,0.014355468750000001,9.780859375,0.0,0.0,0.0,0.0,-0.244140625,0.0,-0.0823974609375,0.1812744140625,-83.045654296875,-0.1812744140625,-0.4833984375,-101.063232421875
17:48:07.009, 0.0,0.0,9.78564453125,0.0,0.014355468750000001,9.780859375,0.0,0.0,0.0,-0.18310546875,-0.1220703125,0.0,-0.0823974609375,0.1812744140625,-83.045654296875,-0.1812744140625,-0.4833984375,-101.063232421875
17:48:07.124, -0.00478515625,0.0,9.80478515625,0.00478515625,0.0,9.78564453125,0.0,0.0,0.0,-0.30517578125,-0.1220703125,0.0,-0.0823974609375,0.1812744140625,-83.045654296875,-0.1812744140625,-0.4833984375,-101.0687255859375
17:48:07.239, -0.033496093750000004,0.0,9.795214843750001,-0.014355468750000001,0.019140625,9.795214843750001,0.0,0.0,0.0,-0.1220703125,-0.3662109375,0.0,-0.0823974609375,0.1812744140625,-83.045654296875,-0.186767578125,-0.4833984375,-101.0687255859375
17:48:07.339, -0.0095703125,0.00478515625,9.814355468750001,-0.00478515625,-0.00478515625,9.790429687500001,0.0,0.0,0.0,-0.18310546875,-0.42724609375,0.0,-0.0823974609375,0.1812744140625,-83.045654296875,-0.186767578125,-0.4833984375,-101.0687255859375
17:48:07.443, 0.014355468750000001,0.0,9.8095703125,0.0095703125,0.033496093750000004,9.795214843750001,0.0,0.0,0.0,-0.06103515625,-0.244140625,0.0,-0.0823974609375,0.1812744140625,-83.045654296875,-0.1812744140625,-0.4833984375,-101.07421875
17:48:07.556, 0.0,0.0095703125,9.790429687500001,0.014355468750000001,0.00478515625,9.82392578125,0.0,0.0,0.0,0.0,-0.1220703125,0.0,-0.0823974609375,0.1812744140625,-83.045654296875,-0.1812744140625,-0.4888916015625,-101.07421875
17:48:07.658, -0.02392578125,-0.0095703125,9.790429687500001,-0.014355468750000001,0.0095703125,9.80478515625,0.0,0.0,0.0,0.06103515625,-0.30517578125,0.0,-0.0823974609375,0.1812744140625,-83.045654296875,-0.1812744140625,-0.4833984375,-101.0687255859375
17:48:07.759, -0.014355468750000001,-0.0095703125,9.8095703125,0.0,0.019140625,9.814355468750001,0.0,0.0,0.0,-0.06103515625,-0.30517578125,-0.06103515625,-0.0823974609375,0.1812744140625,-83.045654296875,-0.1812744140625,-0.4779052734375,-101.07421875
17:48:07.874, -0.019140625,0.019140625,9.838281250000001,0.0,0.02392578125,9.795214843750001,0.0,0.0,0.0,-0.1220703125,-0.30517578125,0.06103515625,-0.0823974609375,0.1812744140625,-83.045654296875,-0.1812744140625,-0.4779052734375,-101.07421875
17:48:07.975, 0.0,0.028710937500000002,9.82392578125,-0.0095703125,0.00478515625,9.8,0.0,0.0,0.0,-0.30517578125,-0.18310546875,0.0,-0.0823974609375,0.1812744140625,-83.045654296875,-0.1812744140625,-0.4833984375,-101.0687255859375
17:48:08.075, -0.0095703125,0.019140625,9.8095703125,0.0095703125,0.0095703125,9.819140625000001,0.0,0.0,0.0,-0.1220703125,-0.1220703125,0.0,-0.076904296875,0.1812744140625,-83.045654296875,-0.1812744140625,-0.4833984375,-101.0687255859375
17:48:08.176, -0.014355468750000001,0.00478515625,9.8,-0.014355468750000001,0.0,9.8478515625,0.0,0.0,0.0,-0.06103515625,-0.1220703125,-0.1220703125,-0.076904296875,0.186767578125,-83.045654296875,-0.1812744140625,-0.4833984375,-101.07421875
17:48:08.289, 0.00478515625,-0.0095703125,9.814355468750001,-0.0095703125,0.0,9.78564453125,0.0,0.0,0.0,-0.1220703125,-0.244140625,0.0,-0.076904296875,0.186767578125,-83.045654296875,-0.1812744140625,-0.4833984375,-101.07421875
17:48:08.404, -0.019140625,0.0,9.790429687500001,-0.028710937500000002,-0.014355468750000001,9.814355468750001,0.0,0.0,0.0,0.0,-0.18310546875,0.0,-0.076904296875,0.186767578125,-83.045654296875,-0.1812744140625,-0.4833984375,-101.07421875
17:48:08.507, -0.02392578125,0.0,9.771289062500001,0.019140625,0.019140625,9.814355468750001,0.0,0.0,0.0,-0.18310546875,-0.18310546875,0.0,-0.076904296875,0.186767578125,-83.045654296875,-0.1812744140625,-0.4833984375,-101.07421875
17:48:08.608, -0.019140625,-0.00478515625,9.80478515625,0.0,0.014355468750000001,9.790429687500001,0.0,0.0,0.0,0.06103515625,-0.3662109375,0.0,-0.076904296875,0.186767578125,-83.045654296875,-0.1812744140625,-0.4833984375,-101.0797119140625
17:48:08.722, 0.00478515625,0.0,9.795214843750001,-0.014355468750000001,0.014355468750000001,9.795214843750001,0.0,0.0,0.0,-0.06103515625,-0.244140625,-0.06103515625,-0.076904296875,0.186767578125,-83.045654296875,-0.17578125,-0.4888916015625,-101.07421875
17:48:08.823, -0.019140625,0.00478515625,9.8095703125,-0.02392578125,0.0,9.814355468750001,0.0,0.0,0.0,-0.06103515625,-0.1220703125,0.0,-0.0823974609375,0.1922607421875,-83.045654296875,-0.17578125,-0.4888916015625,-101.0797119140625
17:48:08.939, 0.0,0.0095703125,9.795214843750001,0.00478515625,-0.014355468750000001,9.82392578125,0.0,0.0,0.0,-0.06103515625,-0.18310546875,0.0,-0.0823974609375,0.1922607421875,-83.045654296875,-0.17578125,-0.4888916015625,-101.0797119140625
17:48:09.039, -0.00478515625,0.0095703125,9.795214843750001,0.014355468750000001,0.0095703125,9.790429687500001,0.0,0.0,0.0,0.0,-0.30517578125,-0.06103515625,-0.0823974609375,0.1922607421875,-83.045654296875,-0.17578125,-0.4833984375,-101.0797119140625
17:48:09.140, -0.014355468750000001,0.014355468750000001,9.77607421875,-0.014355468750000001,-0.0095703125,9.8,0.0,0.0,0.0,-0.06103515625,-0.06103515625,0.06103515625,-0.0823974609375,0.1922607421875,-83.045654296875,-0.17578125,-0.4833984375,-101.0797119140625
17:48:09.255, -0.0095703125,0.03828125,9.795214843750001,0.02392578125,0.0,9.790429687500001,0.0,0.0,0.0,-0.1220703125,-0.18310546875,0.244140625,-0.0823974609375,0.1922607421875,-83.045654296875,-0.17578125,-0.4833984375,-101.085205078125
17:48:09.371, 0.00478515625,0.014355468750000001,9.8,0.00478515625,0.00478515625,9.790429687500001,0.0,0.0,0.0,0.0,-0.244140625,-0.06103515625,-0.076904296875,0.1922607421875,-83.045654296875,-0.17578125,-0.4888916015625,-101.085205078125
17:48:09.474, -0.014355468750000001,0.0095703125,9.78564453125,0.0,0.0,9.790429687500001,0.0,0.0,0.0,-0.06103515625,0.0,-0.06103515625,-0.076904296875,0.1922607421875,-83.045654296875,-0.17578125,-0.4888916015625,-101.085205078125
17:48:09.587, -0.019140625,-0.00478515625,9.8,0.0,0.019140625,9.790429687500001,0.0,0.0,0.0,-0.06103515625,-0.30517578125,0.0,-0.076904296875,0.1922607421875,-83.045654296875,-0.17578125,-0.4888916015625,-101.085205078125
17:48:09.703, -0.0095703125,0.00478515625,9.77607421875,0.0,0.0,9.8,0.0,0.0,0.0,-0.1220703125,-0.18310546875,-0.06103515625,-0.076904296875,0.1922607421875,-83.045654296875,-0.17578125,-0.4888916015625,-101.0906982421875
17:48:09.806, 0.00478515625,0.0,9.77607421875,0.0095703125,-0.0095703125,9.780859375,0.0,0.0,0.0,-0.06103515625,-0.244140625,0.0,-0.076904296875,0.1922607421875,-83.045654296875,-0.1812744140625,-0.4888916015625,-101.0906982421875
17:48:09.920, 0.0,-0.00478515625,9.8287109375,-0.00478515625,0.0095703125,9.80478515625,0.0,0.0,0.0,-0.18310546875,-0.244140625,0.0,-0.076904296875,0.1922607421875,-83.045654296875,-0.186767578125,-0.4833984375,-101.0906982421875
17:48:10.022, 0.00478515625,0.014355468750000001,9.790429687500001,0.0,0.014355468750000001,9.80478515625,0.0,0.0,0.0,-0.1220703125,-0.244140625,0.0,-0.076904296875,0.1922607421875,-83.045654296875,-0.186767578125,-0.4888916015625,-101.0906982421875
17:48:10.137, 0.014355468750000001,0.0,9.8,0.0,0.00478515625,9.8,0.0,0.0,0.0,-0.1220703125,-0.30517578125,0.0,-0.076904296875,0.1922607421875,-83.045654296875,-0.186767578125,-0.4888916015625,-101.0906982421875
17:48:10.253, 0.00478515625,0.0,9.795214843750001,-0.0095703125,0.0,9.80478515625,0.0,0.0,0.0,-0.06103515625,-0.244140625,0.0,-0.076904296875,0.1922607421875,-83.045654296875,-0.186767578125,-0.4888916015625,-101.0906982421875
17:48:10.355, -0.0095703125,-0.019140625,9.8,-0.014355468750000001,0.00478515625,9.780859375,0.0,0.0,0.0,-0.1220703125,-0.3662109375,0.0,-0.076904296875,0.1922607421875,-83.045654296875,-0.1922607421875,-0.4888916015625,-101.0906982421875
17:48:10.469, 0.0095703125,-0.014355468750000001,9.780859375,0.0,0.0,9.78564453125,0.0,0.0,0.0,-0.1220703125,-0.30517578125,0.06103515625,-0.076904296875,0.1922607421875,-83.045654296875,-0.1922607421875,-0.4888916015625,-101.0906982421875
17:48:10.569, -0.02392578125,0.0,9.780859375,0.0,0.00478515625,9.814355468750001,0.0,0.0,0.0,-0.1220703125,-0.18310546875,0.0,-0.0823974609375,0.186767578125,-83.045654296875,-0.1922607421875,-0.4888916015625,-101.0906982421875
17:48:10.685, 0.0,0.0,9.80478515625,-0.014355468750000001,0.02392578125,9.8287109375,0.0,0.0,0.0,-0.06103515625,-0.244140625,0.0,-0.0823974609375,0.186767578125,-83.045654296875,-0.1922607421875,-0.4888916015625,-101.09619140625
17:48:10.786, 0.00478515625,0.019140625,9.8,-0.014355468750000001,0.0,9.814355468750001,0.0,0.0,0.0,0.0,-0.30517578125,0.0,-0.0823974609375,0.1922607421875,-83.045654296875,-0.1922607421875,-0.4888916015625,-101.09619140625
17:48:10.887, 0.0095703125,0.0095703125,9.795214843750001,-0.019140625,0.02392578125,9.814355468750001,0.0,0.0,0.0,0.0,-0.1220703125,-0.06103515625,-0.0823974609375,0.1922607421875,-83.045654296875,-0.1922607421875,-0.4888916015625,-101.0906982421875
17:48:11.002, -0.00478515625,-0.014355468750000001,9.814355468750001,0.00478515625,0.019140625,9.819140625000001,0.0,0.0,0.0,-0.244140625,-0.244140625,0.1220703125,-0.076904296875,0.1922607421875,-83.045654296875,-0.1922607421875,-0.494384765625,-101.09619140625
17:48:11.103, -0.00478515625,0.014355468750000001,9.780859375,-0.0095703125,0.014355468750000001,9.82392578125,0.0,0.0,0.0,-0.06103515625,-0.18310546875,-0.1220703125,-0.0823974609375,0.1922607421875,-83.045654296875,-0.186767578125,-0.494384765625,-101.09619140625
17:48:11.218, 0.0,0.014355468750000001,9.780859375,0.0,0.0095703125,9.795214843750001,0.0,0.0,0.0,0.0,-0.18310546875,-0.06103515625,-0.0823974609375,0.186767578125,-83.045654296875,-0.1922607421875,-0.494384765625,-101.0906982421875
17:48:11.321, 0.0,0.014355468750000001,9.780859375,-0.00478515625,0.014355468750000001,9.819140625000001,0.0,0.0,0.0,-0.06103515625,-0.18310546875,0.1220703125,-0.0823974609375,0.186767578125,-83.045654296875,-0.1922607421875,-0.494384765625,-101.0906982421875
17:48:11.436, 0.0095703125,0.0095703125,9.8,0.0,0.0,9.819140625000001,0.0,0.0,0.0,0.0,-0.244140625,0.0,-0.0823974609375,0.186767578125,-83.045654296875,-0.1922607421875,-0.494384765625,-101.09619140625
17:48:11.536, -0.02392578125,0.00478515625,9.814355468750001,-0.014355468750000001,0.0,9.8095703125,0.0,0.0,0.0,-0.06103515625,-0.06103515625,0.06103515625,-0.0823974609375,0.186767578125,-83.045654296875,-0.1922607421875,-0.494384765625,-101.09619140625
17:48:11.637, -0.019140625,0.0,9.77607421875,-0.0095703125,0.00478515625,9.8,0.0,0.0,0.0,0.0,-0.06103515625,-0.06103515625,-0.0823974609375,0.186767578125,-83.045654296875,-0.1922607421875,-0.4888916015625,-101.09619140625
17:48:11.752, -0.04306640625,0.028710937500000002,9.780859375,-0.02392578125,0.014355468750000001,9.795214843750001,0.0,0.0,0.0,-0.1220703125,-0.244140625,0.0,-0.0823974609375,0.186767578125,-83.045654296875,-0.1922607421875,-0.4888916015625,-101.09619140625
17:48:11.867, 0.0,0.02392578125,9.790429687500001,0.0,0.0,9.8,0.0,0.0,0.0,0.0,-0.06103515625,0.06103515625,-0.0823974609375,0.1922607421875,-83.045654296875,-0.1922607421875,-0.4888916015625,-101.09619140625
17:48:11.969, -0.019140625,0.014355468750000001,9.795214843750001,0.00478515625,0.02392578125,9.771289062500001,0.0,0.0,0.0,0.06103515625,-0.30517578125,0.0,-0.0823974609375,0.1922607421875,-83.045654296875,-0.1922607421875,-0.4888916015625,-101.09619140625
17:48:12.069, -0.019140625,0.0,9.8,-0.0095703125,-0.00478515625,9.78564453125,0.0,0.0,0.0,0.0,-0.244140625,0.0,-0.0823974609375,0.1922607421875,-83.045654296875,-0.1922607421875,-0.4888916015625,-101.09619140625
17:48:12.170, -0.0095703125,-0.0095703125,9.795214843750001,0.00478515625,0.0095703125,9.795214843750001,0.0,0.0,0.0,0.0,-0.244140625,0.0,-0.0823974609375,0.186767578125,-83.045654296875,-0.1922607421875,-0.4888916015625,-101.1016845703125
17:48:12.282, 0.00478515625,0.0095703125,9.80478515625,0.019140625,0.0095703125,9.790429687500001,0.0,0.0,0.0,-0.18310546875,-0.42724609375,0.0,-0.0823974609375,0.186767578125,-83.045654296875,-0.1922607421875,-0.494384765625,-101.09619140625
17:48:12.385, -0.00478515625,0.0095703125,9.8095703125,0.00478515625,0.028710937500000002,9.78564453125,0.0,0.0,0.0,-0.1220703125,-0.3662109375,-0.06103515625,-0.0823974609375,0.186767578125,-83.045654296875,-0.1922607421875,-0.494384765625,-101.09619140625
17:48:12.485, -0.028710937500000002,0.00478515625,9.82392578125,0.00478515625,0.0,9.8095703125,0.0,0.0,0.0,-0.06103515625,-0.06103515625,0.0,-0.0823974609375,0.186767578125,-83.045654296875,-0.1922607421875,-0.494384765625,-101.09619140625
17:48:12.601, -0.00478515625,0.0095703125,9.8,0.0,0.00478515625,9.77607421875,0.0,0.0,0.0,0.0,-0.244140625,0.0,-0.0823974609375,0.186767578125,-83.045654296875,-0.1922607421875,-0.4888916015625,-101.09619140625
17:48:12.703, -0.014355468750000001,0.0,9.80478515625,0.0,0.019140625,9.8095703125,0.0,0.0,0.0,-0.18310546875,-0.3662109375,0.0,-0.0823974609375,0.186767578125,-83.045654296875,-0.186767578125,-0.494384765625,-101.09619140625
17:48:12.817, -0.033496093750000004,0.0095703125,9.790429687500001,-0.00478515625,0.0095703125,9.8,0.0,0.0,0.0,0.0,-0.18310546875,0.0,-0.0823974609375,0.186767578125,-83.045654296875,-0.186767578125,-0.4888916015625,-101.09619140625
17:48:12.932, -0.0095703125,-0.00478515625,9.8095703125,-0.014355468750000001,0.00478515625,9.795214843750001,0.0,0.0,0.0,-0.06103515625,-0.18310546875,0.06103515625,-0.0823974609375,0.1922607421875,-83.045654296875,-0.186767578125,-0.4888916015625,-101.1016845703125
17:48:13.035, 0.0,0.0,9.795214843750001,0.00478515625,0.014355468750000001,9.78564453125,0.0,0.0,0.0,-0.06103515625,-0.244140625,0.0,-0.0823974609375,0.1922607421875,-83.045654296875,-0.186767578125,-0.4833984375,-101.1016845703125
17:48:13.135, 0.014355468750000001,0.0095703125,9.8095703125,-0.0095703125,0.0,9.795214843750001,0.0,0.0,0.0,-0.1220703125,-0.244140625,0.0,-0.0823974609375,0.186767578125,-83.045654296875,-0.186767578125,-0.4833984375,-101.1016845703125
17:48:13.251, -0.00478515625,0.0095703125,9.8095703125,0.00478515625,-0.0095703125,9.8095703125,0.0,0.0,0.0,0.0,-0.244140625,0.0,-0.0823974609375,0.186767578125,-83.045654296875,-0.186767578125,-0.4888916015625,-101.1016845703125
17:48:13.366, 0.02392578125,0.0095703125,9.795214843750001,0.033496093750000004,-0.0095703125,9.82392578125,0.0,0.0,0.0,-0.18310546875,-0.30517578125,0.0,-0.0823974609375,0.186767578125,-83.045654296875,-0.186767578125,-0.4833984375,-101.1016845703125
17:48:13.481, -0.019140625,-0.014355468750000001,9.8,-0.0095703125,-0.028710937500000002,9.819140625000001,0.0,0.0,0.0,0.0,-0.06103515625,-0.06103515625,-0.0823974609375,0.1922607421875,-83.045654296875,-0.186767578125,-0.4833984375,-101.107177734375
17:48:13.581, 0.0,-0.014355468750000001,9.8,0.02392578125,0.00478515625,9.8287109375,0.0,0.0,0.0,-0.1220703125,-0.3662109375,-0.06103515625,-0.0823974609375,0.1922607421875,-83.045654296875,-0.186767578125,-0.4833984375,-101.107177734375
17:48:13.684, 0.014355468750000001,0.0095703125,9.77607421875,-0.00478515625,0.019140625,9.814355468750001,0.0,0.0,0.0,-0.06103515625,-0.18310546875,-0.1220703125,-0.0823974609375,0.1922607421875,-83.045654296875,-0.186767578125,-0.4888916015625,-101.107177734375
17:48:13.800, -0.0095703125,0.033496093750000004,9.790429687500001,-0.014355468750000001,0.02392578125,9.80478515625,0.0,0.0,0.0,-0.06103515625,-0.1220703125,-0.06103515625,-0.0823974609375,0.1922607421875,-83.045654296875,-0.1922607421875,-0.4888916015625,-101.107177734375
17:48:13.901, -0.028710937500000002,0.04306640625,9.795214843750001,-0.00478515625,0.028710937500000002,9.77607421875,0.0,0.0,0.0,-0.06103515625,-0.18310546875,0.0,-0.0823974609375,0.1922607421875,-83.045654296875,-0.186767578125,-0.4888916015625,-101.1016845703125
17:48:14.015, -0.014355468750000001,0.019140625,9.780859375,0.0,0.02392578125,9.795214843750001,0.0,0.0,0.0,-0.1220703125,-0.1220703125,0.0,-0.0823974609375,0.1922607421875,-83.045654296875,-0.186767578125,-0.494384765625,-101.1016845703125
17:48:14.130, -0.014355468750000001,0.033496093750000004,9.78564453125,-0.014355468750000001,0.00478515625,9.78564453125,0.0,0.0,0.0,0.0,-0.244140625,0.06103515625,-0.0823974609375,0.1922607421875,-83.045654296875,-0.186767578125,-0.4888916015625,-101.1016845703125
17:48:14.232, -0.0095703125,0.00478515625,9.814355468750001,-0.0095703125,0.00478515625,9.80478515625,0.0,0.0,0.0,-0.1220703125,-0.06103515625,-0.06103515625,-0.0823974609375,0.1922607421875,-83.045654296875,-0.186767578125,-0.4833984375,-101.107177734375
17:48:14.346, 0.00478515625,0.0,9.790429687500001,-0.014355468750000001,0.00478515625,9.780859375,0.0,0.0,0.0,0.0,-0.30517578125,-0.06103515625,-0.0823974609375,0.1922607421875,-83.045654296875,-0.186767578125,-0.4888916015625,-101.107177734375
17:48:14.446, -0.00478515625,0.0095703125,9.780859375,0.0,-0.02392578125,9.8,0.0,0.0,0.0,0.06103515625,-0.18310546875,0.0,-0.0823974609375,0.1922607421875,-83.045654296875,-0.186767578125,-0.4888916015625,-101.107177734375
17:48:14.551, 0.00478515625,0.0,9.78564453125,0.0,0.019140625,9.814355468750001,0.0,0.0,0.0,0.0,-0.3662109375,0.06103515625,-0.0823974609375,0.1922607421875,-83.045654296875,-0.186767578125,-0.4888916015625,-101.107177734375
17:48:14.663, 0.0095703125,0.0,9.780859375,0.0,0.0,9.83349609375,0.0,0.0,0.0,-0.1220703125,-0.18310546875,0.0,-0.0823974609375,0.1922607421875,-83.045654296875,-0.1922607421875,-0.494384765625,-101.107177734375
17:48:14.764, -0.014355468750000001,0.0,9.790429687500001,0.014355468750000001,0.019140625,9.814355468750001,0.0,0.0,0.0,0.0,-0.244140625,0.0,-0.0823974609375,0.1922607421875,-83.045654296875,-0.1922607421875,-0.494384765625,-101.107177734375
17:48:14.866, -0.014355468750000001,-0.0095703125,9.790429687500001,0.00478515625,0.0,9.795214843750001,0.0,0.0,0.0,0.0,-0.18310546875,0.0,-0.0823974609375,0.1922607421875,-83.045654296875,-0.1922607421875,-0.494384765625,-101.107177734375
17:48:14.978, 0.0095703125,-0.0095703125,9.75693359375,0.028710937500000002,0.00478515625,9.80478515625,0.0,0.0,0.0,0.0,-0.30517578125,0.0,-0.0823974609375,0.1922607421875,-83.045654296875,-0.1922607421875,-0.494384765625,-101.107177734375
17:48:15.078, -0.0095703125,0.019140625,9.795214843750001,0.0,0.0095703125,9.8,0.0,0.0,0.0,-0.18310546875,-0.18310546875,0.06103515625,-0.0823974609375,0.1922607421875,-83.045654296875,-0.1922607421875,-0.494384765625,-101.107177734375
17:48:15.181, 0.019140625,-0.0095703125,9.8,0.014355468750000001,-0.00478515625,9.8,0.0,0.0,0.0,0.0,-0.3662109375,-0.1220703125,-0.0823974609375,0.1922607421875,-83.045654296875,-0.19775390625,-0.4998779296875,-101.107177734375
17:48:15.281, -0.019140625,0.0,9.78564453125,0.0,0.00478515625,9.8,0.0,0.0,0.0,-0.06103515625,-0.18310546875,0.0,-0.0823974609375,0.1922607421875,-83.045654296875,-0.1922607421875,-0.494384765625,-101.107177734375
17:48:15.397, -0.0095703125,-0.00478515625,9.8,0.00478515625,-0.0095703125,9.790429687500001,0.0,0.0,0.0,-0.1220703125,-0.18310546875,-0.06103515625,-0.0823974609375,0.1922607421875,-83.045654296875,-0.19775390625,-0.494384765625,-101.1126708984375
17:48:15.499, 0.0,0.019140625,9.82392578125,0.0095703125,0.019140625,9.780859375,0.0,0.0,0.0,-0.1220703125,-0.30517578125,0.0,-0.0823974609375,0.1922607421875,-83.045654296875,-0.1922607421875,-0.494384765625,-101.1126708984375
17:48:15.612, 0.014355468750000001,0.0095703125,9.80478515625,0.02392578125,0.00478515625,9.80478515625,0.0,0.0,0.0,-0.06103515625,-0.3662109375,0.0,-0.0823974609375,0.1922607421875,-83.045654296875,-0.1922607421875,-0.494384765625,-101.1181640625
17:48:15.712, -0.014355468750000001,0.03828125,9.78564453125,0.00478515625,-0.00478515625,9.771289062500001,0.0,0.0,0.0,-0.244140625,-0.1220703125,-0.1220703125,-0.0823974609375,0.1922607421875,-83.045654296875,-0.1922607421875,-0.494384765625,-101.1181640625
17:48:15.814, 0.0,-0.014355468750000001,9.82392578125,0.00478515625,-0.019140625,9.8095703125,0.0,0.0,0.0,-0.1220703125,-0.30517578125,-0.06103515625,-0.0823974609375,0.1922607421875,-83.045654296875,-0.186767578125,-0.494384765625,-101.1181640625
17:48:15.914, -0.019140625,-0.028710937500000002,9.780859375,0.0095703125,-0.00478515625,9.8095703125,0.0,0.0,0.0,-0.18310546875,-0.244140625,0.0,-0.0823974609375,0.1922607421875,-83.045654296875,-0.1922607421875,-0.494384765625,-101.1236572265625
17:48:16.028, -0.028710937500000002,0.0,9.80478515625,0.0,0.014355468750000001,9.80478515625,0.0,0.0,0.0,-0.1220703125,-0.18310546875,0.0,-0.0823974609375,0.1922607421875,-83.045654296875,-0.186767578125,-0.4998779296875,-101.1236572265625
17:48:16.131, 0.00478515625,0.028710937500000002,9.78564453125,0.0,0.0095703125,9.814355468750001,0.0,0.0,0.0,-0.06103515625,-0.30517578125,0.0,-0.0823974609375,0.1922607421875,-83.045654296875,-0.1812744140625,-0.494384765625,-101.1236572265625
17:48:16.246, 0.0,-0.00478515625,9.8,0.00478515625,0.028710937500000002,9.85263671875,0.0,0.0,0.0,0.0,-0.1220703125,0.0,-0.0823974609375,0.1922607421875,-83.045654296875,-0.1812744140625,-0.494384765625,-101.1236572265625
17:48:16.361, 0.0,-0.00478515625,9.766503906250001,0.0,0.00478515625,9.819140625000001,0.0,0.0,0.0,-0.06103515625,-0.1220703125,0.0,-0.0823974609375,0.1922607421875,-83.045654296875,-0.1812744140625,-0.494384765625,-101.1236572265625
17:48:16.476, -0.028710937500000002,0.0,9.8,0.014355468750000001,0.0,9.8,0.0,0.0,0.0,0.0,-0.244140625,-0.06103515625,-0.076904296875,0.1922607421875,-83.045654296875,-0.1812744140625,-0.4888916015625,-101.1236572265625
17:48:16.579, -0.019140625,0.0,9.8,0.0,0.014355468750000001,9.77607421875,0.0,0.0,0.0,0.0,-0.18310546875,-0.1220703125,-0.076904296875,0.1922607421875,-83.045654296875,-0.1812744140625,-0.4888916015625,-101.1236572265625
17:48:16.680, -0.00478515625,0.0095703125,9.814355468750001,-0.00478515625,0.0095703125,9.843066406250001,0.0,0.0,0.0,0.0,-0.18310546875,-0.06103515625,-0.076904296875,0.1922607421875,-83.045654296875,-0.1812744140625,-0.4888916015625,-101.1236572265625
17:48:16.795, -0.014355468750000001,0.0095703125,9.771289062500001,-0.0095703125,0.028710937500000002,9.814355468750001,0.0,0.0,0.0,0.0,-0.1220703125,0.0,-0.076904296875,0.1922607421875,-83.045654296875,-0.186767578125,-0.4888916015625,-101.1236572265625
17:48:16.897, -0.0095703125,0.00478515625,9.78564453125,-0.00478515625,0.019140625,9.8,0.0,0.0,0.0,-0.06103515625,-0.244140625,-0.06103515625,-0.0823974609375,0.1922607421875,-83.045654296875,-0.1812744140625,-0.494384765625,-101.129150390625
17:48:16.997, -0.019140625,0.019140625,9.78564453125,-0.02392578125,0.0,9.8,0.0,0.0,0.0,-0.1220703125,-0.3662109375,0.0,-0.0823974609375,0.1922607421875,-83.045654296875,-0.1812744140625,-0.494384765625,-101.129150390625
17:48:17.111, -0.0095703125,0.0095703125,9.780859375,0.00478515625,0.0,9.83349609375,0.0,0.0,0.0,0.0,-0.30517578125,-0.1220703125,-0.0823974609375,0.1922607421875,-83.045654296875,-0.1812744140625,-0.494384765625,-101.129150390625
17:48:17.226, -0.019140625,0.0,9.8095703125,-0.00478515625,0.033496093750000004,9.790429687500001,0.0,0.0,0.0,-0.06103515625,-0.18310546875,0.0,-0.0823974609375,0.1922607421875,-83.045654296875,-0.17578125,-0.494384765625,-101.129150390625
17:48:17.329, -0.02392578125,-0.00478515625,9.80478515625,-0.028710937500000002,0.00478515625,9.814355468750001,0.0,0.0,0.0,-0.06103515625,-0.244140625,0.0,-0.0823974609375,0.1922607421875,-83.045654296875,-0.17578125,-0.494384765625,-101.1346435546875
17:48:17.429, -0.019140625,0.0,9.790429687500001,0.0,0.0,9.78564453125,0.0,0.0,0.0,0.0,-0.30517578125,0.0,-0.0823974609375,0.1922607421875,-83.045654296875,-0.17578125,-0.494384765625,-101.1346435546875
17:48:17.543, -0.0095703125,0.014355468750000001,9.795214843750001,-0.0095703125,-0.019140625,9.78564453125,0.0,0.0,0.0,-0.06103515625,-0.244140625,0.0,-0.076904296875,0.1922607421875,-83.045654296875,-0.1812744140625,-0.494384765625,-101.1346435546875
17:48:17.645, -0.00478515625,-0.0095703125,9.795214843750001,0.014355468750000001,-0.033496093750000004,9.8,0.0,0.0,0.0,-0.06103515625,-0.18310546875,-0.1220703125,-0.0823974609375,0.1922607421875,-83.045654296875,-0.1812744140625,-0.494384765625,-101.14013671875
17:48:17.760, 0.0,0.014355468750000001,9.78564453125,0.0,0.0095703125,9.780859375,0.0,0.0,0.0,-0.18310546875,-0.18310546875,0.0,-0.0823974609375,0.1922607421875,-83.045654296875,-0.1812744140625,-0.494384765625,-101.14013671875
17:48:17.875, 0.0,0.00478515625,9.795214843750001,0.0,0.014355468750000001,9.77607421875,0.0,0.0,0.0,0.0,-0.30517578125,0.0,-0.0823974609375,0.1922607421875,-83.045654296875,-0.1812744140625,-0.494384765625,-101.14013671875
17:48:17.976, -0.019140625,0.0095703125,9.795214843750001,-0.0095703125,-0.00478515625,9.795214843750001,0.0,0.0,0.0,0.0,-0.06103515625,-0.06103515625,-0.0823974609375,0.1922607421875,-83.045654296875,-0.1812744140625,-0.494384765625,-101.1456298828125
17:48:18.091, -0.014355468750000001,-0.00478515625,9.795214843750001,0.00478515625,0.00478515625,9.78564453125,0.0,0.0,0.0,-0.1220703125,-0.30517578125,-0.18310546875,-0.0823974609375,0.1922607421875,-83.045654296875,-0.1812744140625,-0.494384765625,-101.1456298828125
17:48:18.193, -0.014355468750000001,0.00478515625,9.8095703125,-0.028710937500000002,-0.019140625,9.78564453125,0.0,0.0,0.0,-0.1220703125,-0.244140625,0.0,-0.0823974609375,0.1922607421875,-83.045654296875,-0.1812744140625,-0.494384765625,-101.151123046875
17:48:18.293, 0.0,0.00478515625,9.8095703125,0.00478515625,0.0095703125,9.790429687500001,0.0,0.0,0.0,-0.1220703125,-0.1220703125,0.06103515625,-0.0823974609375,0.1922607421875,-83.045654296875,-0.1812744140625,-0.494384765625,-101.1456298828125
17:48:18.406, 0.0,0.0,9.80478515625,0.0095703125,0.0095703125,9.8095703125,0.0,0.0,0.0,-0.18310546875,-0.30517578125,0.0,-0.0823974609375,0.1922607421875,-83.045654296875,-0.1812744140625,-0.4888916015625,-101.151123046875
17:48:18.509, -0.019140625,0.0095703125,9.795214843750001,0.0095703125,0.0095703125,9.78564453125,0.0,0.0,0.0,-0.1220703125,-0.1220703125,0.06103515625,-0.0823974609375,0.1922607421875,-83.045654296875,-0.186767578125,-0.4888916015625,-101.151123046875
17:48:18.612, -0.00478515625,0.0095703125,9.819140625000001,0.0095703125,-0.00478515625,9.790429687500001,0.0,0.0,0.0,-0.06103515625,-0.244140625,-0.1220703125,-0.0823974609375,0.1922607421875,-83.045654296875,-0.1812744140625,-0.494384765625,-101.151123046875
17:48:18.725, 0.0,0.0,9.8,-0.014355468750000001,0.019140625,9.80478515625,0.0,0.0,0.0,-0.1220703125,-0.30517578125,0.1220703125,-0.0823974609375,0.1922607421875,-83.045654296875,-0.1812744140625,-0.4888916015625,-101.151123046875
17:48:18.828, -0.03828125,0.0095703125,9.8287109375,0.00478515625,-0.00478515625,9.790429687500001,0.0,0.0,0.0,0.0,-0.244140625,-0.06103515625,-0.0823974609375,0.1922607421875,-83.045654296875,-0.1812744140625,-0.494384765625,-101.151123046875
17:48:18.943, -0.0095703125,0.02392578125,9.790429687500001,-0.02392578125,0.00478515625,9.819140625000001,0.0,0.0,0.0,-0.244140625,-0.244140625,0.1220703125,-0.0823974609375,0.1922607421875,-83.045654296875,-0.1812744140625,-0.4998779296875,-101.151123046875
17:48:19.059, -0.014355468750000001,0.0,9.790429687500001,0.0095703125,0.0095703125,9.8095703125,0.0,0.0,0.0,-0.18310546875,-0.30517578125,-0.1220703125,-0.0823974609375,0.1922607421875,-83.045654296875,-0.186767578125,-0.4998779296875,-101.151123046875
17:48:19.175, 0.00478515625,0.02392578125,9.8095703125,-0.0095703125,0.0,9.77607421875,0.0,0.0,0.0,0.0,-0.1220703125,0.0,-0.0823974609375,0.1922607421875,-83.045654296875,-0.186767578125,-0.4998779296875,-101.151123046875
17:48:19.276, 0.0,-0.00478515625,9.766503906250001,0.00478515625,-0.014355468750000001,9.814355468750001,0.0,0.0,0.0,-0.06103515625,-0.1220703125,0.0,-0.0823974609375,0.1922607421875,-83.045654296875,-0.1812744140625,-0.4998779296875,-101.151123046875
17:48:19.390, 0.0,-0.00478515625,9.76171875,0.00478515625,0.02392578125,9.8,0.0,0.0,0.0,-0.06103515625,-0.244140625,0.0,-0.0823974609375,0.1922607421875,-83.045654296875,-0.1812744140625,-0.4998779296875,-101.1566162109375
17:48:19.490, 0.0095703125,-0.014355468750000001,9.80478515625,0.0,0.033496093750000004,9.77607421875,0.0,0.0,0.0,0.0,-0.06103515625,0.0,-0.0823974609375,0.1922607421875,-83.045654296875,-0.186767578125,-0.4998779296875,-101.1566162109375
17:48:19.593, -0.02392578125,0.0095703125,9.8095703125,-0.00478515625,0.0,9.8095703125,0.0,0.0,0.0,0.0,-0.1220703125,0.06103515625,-0.076904296875,0.1922607421875,-83.045654296875,-0.1812744140625,-0.4998779296875,-101.1566162109375
17:48:19.709, 0.00478515625,0.0095703125,9.790429687500001,0.033496093750000004,0.014355468750000001,9.814355468750001,0.0,0.0,0.0,0.0,-0.244140625,0.0,-0.076904296875,0.1922607421875,-83.045654296875,-0.17578125,-0.4998779296875,-101.1566162109375
17:48:19.809, -0.00478515625,0.0,9.819140625000001,-0.0095703125,0.019140625,9.8095703125,0.0,0.0,0.0,0.0,-0.1220703125,0.0,-0.076904296875,0.1922607421875,-83.045654296875,-0.1812744140625,-0.494384765625,-101.1566162109375
17:48:19.925, -0.00478515625,-0.0095703125,9.8287109375,-0.00478515625,0.014355468750000001,9.80478515625,0.0,0.0,0.0,-0.06103515625,-0.18310546875,0.0,-0.076904296875,0.1922607421875,-83.045654296875,-0.1812744140625,-0.494384765625,-101.1566162109375
17:48:20.026, 0.0,0.00478515625,9.80478515625,-0.00478515625,0.014355468750000001,9.795214843750001,0.0,0.0,0.0,-0.06103515625,-0.1220703125,-0.06103515625,-0.076904296875,0.1922607421875,-83.045654296875,-0.186767578125,-0.494384765625,-101.162109375
17:48:20.140, -0.019140625,0.0095703125,9.780859375,-0.00478515625,0.0095703125,9.80478515625,0.0,0.0,0.0,-0.1220703125,0.0,0.1220703125,-0.076904296875,0.1922607421875,-83.045654296875,-0.1812744140625,-0.494384765625,-101.162109375
17:48:20.241, 0.0,0.019140625,9.80478515625,-0.028710937500000002,0.014355468750000001,9.8,0.0,0.0,0.0,-0.06103515625,-0.1220703125,0.0,-0.076904296875,0.1922607421875,-83.045654296875,-0.186767578125,-0.494384765625,-101.162109375
17:48:20.356, 0.00478515625,0.014355468750000001,9.80478515625,-0.02392578125,0.02392578125,9.78564453125,0.0,0.0,0.0,-0.18310546875,-0.3662109375,0.0,-0.076904296875,0.1922607421875,-83.045654296875,-0.1812744140625,-0.494384765625,-101.162109375
17:48:20.470, 0.0095703125,0.0095703125,9.8095703125,0.0,-0.00478515625,9.80478515625,0.0,0.0,0.0,-0.06103515625,-0.3662109375,0.0,-0.076904296875,0.1922607421875,-83.045654296875,-0.1812744140625,-0.494384765625,-101.162109375
17:48:20.574, 0.0095703125,0.019140625,9.795214843750001,-0.019140625,0.0,9.790429687500001,0.0,0.0,0.0,-0.06103515625,-0.18310546875,-0.06103515625,-0.076904296875,0.1922607421875,-83.045654296875,-0.186767578125,-0.4998779296875,-101.162109375
17:48:20.689, -0.03828125,0.0095703125,9.8095703125,-0.00478515625,-0.0095703125,9.795214843750001,0.0,0.0,0.0,0.0,-0.30517578125,-0.06103515625,-0.076904296875,0.1922607421875,-83.045654296875,-0.186767578125,-0.494384765625,-101.1676025390625
17:48:20.790, -0.033496093750000004,0.0,9.8095703125,-0.028710937500000002,-0.00478515625,9.82392578125,0.0,0.0,0.0,0.0,-0.18310546875,0.06103515625,-0.076904296875,0.1922607421875,-83.045654296875,-0.186767578125,-0.4998779296875,-101.1676025390625
17:48:20.892, 0.0,0.00478515625,9.795214843750001,-0.00478515625,-0.00478515625,9.78564453125,0.0,0.0,0.0,-0.06103515625,-0.18310546875,0.0,-0.076904296875,0.1922607421875,-83.045654296875,-0.186767578125,-0.494384765625,-101.162109375
17:48:21.004, -0.0095703125,-0.014355468750000001,9.795214843750001,-0.00478515625,-0.00478515625,9.819140625000001,0.0,0.0,0.0,-0.244140625,-0.244140625,0.0,-0.076904296875,0.1922607421875,-83.045654296875,-0.186767578125,-0.494384765625,-101.1676025390625
17:48:21.107, 0.00478515625,0.0095703125,9.78564453125,-0.014355468750000001,-0.00478515625,9.8,0.0,0.0,0.0,-0.1220703125,-0.1220703125,0.0,-0.076904296875,0.19775390625,-83.045654296875,-0.186767578125,-0.494384765625,-101.1676025390625
17:48:21.222, 0.014355468750000001,0.019140625,9.771289062500001,-0.00478515625,0.0,9.8,0.0,0.0,0.0,-0.06103515625,-0.244140625,0.06103515625,-0.076904296875,0.19775390625,-83.045654296875,-0.186767578125,-0.4888916015625,-101.1676025390625
17:48:21.324, -0.014355468750000001,-0.00478515625,9.75693359375,0.0,0.0,9.8,0.0,0.0,0.0,-0.1220703125,-0.18310546875,0.06103515625,-0.0714111328125,0.19775390625,-83.045654296875,-0.186767578125,-0.4888916015625,-101.1676025390625
17:48:21.439, -0.019140625,0.019140625,9.75693359375,0.014355468750000001,0.0095703125,9.83349609375,0.0,0.0,0.0,-0.18310546875,-0.244140625,0.06103515625,-0.0714111328125,0.19775390625,-83.045654296875,-0.186767578125,-0.4888916015625,-101.173095703125
17:48:21.555, -0.019140625,0.014355468750000001,9.819140625000001,0.0,0.0,9.8,0.0,0.0,0.0,0.0,-0.1220703125,0.0,-0.0714111328125,0.19775390625,-83.045654296875,-0.186767578125,-0.4888916015625,-101.173095703125
17:48:21.670, -0.019140625,-0.014355468750000001,9.77607421875,0.019140625,0.0,9.814355468750001,0.0,0.0,0.0,-0.1220703125,-0.244140625,0.0,-0.076904296875,0.19775390625,-83.045654296875,-0.186767578125,-0.4833984375,-101.173095703125
17:48:21.770, 0.0,-0.0095703125,9.780859375,0.019140625,0.0,9.8095703125,0.0,0.0,0.0,-0.1220703125,0.0,0.0,-0.076904296875,0.19775390625,-83.045654296875,-0.186767578125,-0.4833984375,-101.1785888671875
17:48:21.885, -0.00478515625,0.014355468750000001,9.790429687500001,-0.0095703125,0.00478515625,9.819140625000001,0.0,0.0,0.0,-0.1220703125,-0.18310546875,-0.06103515625,-0.076904296875,0.19775390625,-83.045654296875,-0.186767578125,-0.4779052734375,-101.1785888671875
17:48:21.986, 0.0,0.00478515625,9.8,0.00478515625,-0.0095703125,9.77607421875,0.0,0.0,0.0,-0.1220703125,-0.18310546875,0.0,-0.076904296875,0.19775390625,-83.045654296875,-0.1922607421875,-0.4779052734375,-101.1785888671875
17:48:22.088, 0.0,-0.014355468750000001,9.8,0.0095703125,0.00478515625,9.780859375,0.0,0.0,0.0,0.06103515625,-0.18310546875,0.0,-0.076904296875,0.19775390625,-83.045654296875,-0.1922607421875,-0.4779052734375,-101.1785888671875
17:48:22.202, -0.019140625,0.0095703125,9.8095703125,0.0,-0.00478515625,9.819140625000001,0.0,0.0,0.0,0.0,-0.18310546875,0.06103515625,-0.076904296875,0.19775390625,-83.045654296875,-0.186767578125,-0.4779052734375,-101.1785888671875
17:48:22.307, -0.019140625,0.0095703125,9.814355468750001,-0.00478515625,0.028710937500000002,9.80478515625,0.0,0.0,0.0,0.0,-0.244140625,0.0,-0.076904296875,0.19775390625,-83.045654296875,-0.186767578125,-0.472412109375,-101.1785888671875
17:48:22.419, 0.00478515625,0.03828125,9.819140625000001,0.0,-0.00478515625,9.80478515625,0.0,0.0,0.0,0.06103515625,-0.18310546875,0.0,-0.076904296875,0.19775390625,-83.045654296875,-0.186767578125,-0.4779052734375,-101.18408203125
17:48:22.520, -0.028710937500000002,0.014355468750000001,9.8,-0.014355468750000001,0.00478515625,9.771289062500001,0.0,0.0,0.0,0.0,-0.30517578125,0.0,-0.076904296875,0.19775390625,-83.045654296875,-0.186767578125,-0.472412109375,-101.18408203125
17:48:22.623, -0.00478515625,0.00478515625,9.80478515625,-0.02392578125,0.0,9.795214843750001,0.0,0.0,0.0,-0.06103515625,-0.30517578125,0.0,-0.076904296875,0.19775390625,-83.045654296875,-0.1922607421875,-0.4779052734375,-101.18408203125
17:48:22.738, -0.019140625,0.00478515625,9.78564453125,0.00478515625,0.028710937500000002,9.80478515625,0.0,0.0,0.0,0.0,-0.06103515625,0.0,-0.076904296875,0.19775390625,-83.045654296875,-0.1922607421875,-0.4779052734375,-101.18408203125
17:48:22.853, 0.02392578125,0.0,9.80478515625,0.0095703125,-0.014355468750000001,9.790429687500001,0.0,0.0,0.0,-0.18310546875,-0.244140625,0.0,-0.076904296875,0.19775390625,-83.045654296875,-0.186767578125,-0.4779052734375,-101.18408203125
17:48:22.953, -0.0095703125,0.00478515625,9.766503906250001,0.0,0.0095703125,9.77607421875,0.0,0.0,0.0,0.0,-0.1220703125,-0.06103515625,-0.076904296875,0.19775390625,-83.045654296875,-0.186767578125,-0.4779052734375,-101.1895751953125
17:48:23.069, -0.014355468750000001,0.014355468750000001,9.8095703125,0.00478515625,0.0095703125,9.766503906250001,0.0,0.0,0.0,-0.06103515625,-0.244140625,0.0,-0.076904296875,0.19775390625,-83.045654296875,-0.186767578125,-0.4779052734375,-101.1895751953125
17:48:23.184, -0.028710937500000002,0.0,9.814355468750001,0.0095703125,0.0,9.780859375,0.0,0.0,0.0,-0.1220703125,-0.244140625,0.06103515625,-0.0714111328125,0.19775390625,-83.045654296875,-0.186767578125,-0.4833984375,-101.1895751953125
17:48:23.284, -0.00478515625,0.014355468750000001,9.790429687500001,0.0095703125,0.0095703125,9.8,0.0,0.0,0.0,-0.1220703125,-0.06103515625,0.0,-0.076904296875,0.19775390625,-83.045654296875,-0.186767578125,-0.4779052734375,-101.1895751953125
17:48:23.386, 0.0,0.019140625,9.80478515625,0.0095703125,0.0,9.8,0.0,0.0,0.0,-0.06103515625,-0.244140625,-0.06103515625,-0.0714111328125,0.19775390625,-83.045654296875,-0.186767578125,-0.4779052734375,-101.1895751953125
17:48:23.487, -0.00478515625,0.0,9.795214843750001,-0.0095703125,0.00478515625,9.80478515625,0.0,0.0,0.0,-0.18310546875,-0.244140625,0.0,-0.0714111328125,0.19775390625,-83.045654296875,-0.1922607421875,-0.4779052734375,-101.1895751953125
17:48:23.602, 0.014355468750000001,0.02392578125,9.795214843750001,0.00478515625,0.0,9.8,0.0,0.0,0.0,-0.18310546875,-0.1220703125,0.06103515625,-0.0714111328125,0.1922607421875,-83.045654296875,-0.186767578125,-0.4779052734375,-101.1895751953125
17:48:23.705, -0.014355468750000001,0.0095703125,9.76171875,0.0,0.0,9.814355468750001,0.0,0.0,0.0,0.0,-0.30517578125,-0.06103515625,-0.0714111328125,0.1922607421875,-83.045654296875,-0.1922607421875,-0.4833984375,-101.1895751953125
17:48:23.819, -0.02392578125,0.04306640625,9.75693359375,-0.014355468750000001,0.0095703125,9.80478515625,0.0,0.0,0.0,-0.1220703125,-0.18310546875,-0.06103515625,-0.0714111328125,0.1922607421875,-83.045654296875,-0.186767578125,-0.4833984375,-101.1895751953125
17:48:23.932, -0.0095703125,0.014355468750000001,9.80478515625,-0.0095703125,0.014355468750000001,9.8287109375,0.0,0.0,0.0,0.0,-0.1220703125,0.0,-0.0714111328125,0.1922607421875,-83.045654296875,-0.186767578125,-0.4833984375,-101.1895751953125
17:48:24.036, 0.0,0.0,9.780859375,0.00478515625,0.0,9.819140625000001,0.0,0.0,0.0,-0.06103515625,-0.1220703125,0.0,-0.0714111328125,0.1922607421875,-83.045654296875,-0.186767578125,-0.4833984375,-101.195068359375
17:48:24.151, -0.00478515625,0.0095703125,9.790429687500001,-0.00478515625,0.019140625,9.814355468750001,0.0,0.0,0.0,-0.06103515625,-0.1220703125,0.0,-0.0714111328125,0.19775390625,-83.045654296875,-0.186767578125,-0.4833984375,-101.195068359375
17:48:24.253, 0.00478515625,0.02392578125,9.790429687500001,-0.0095703125,-0.0095703125,9.8,0.0,0.0,0.0,-0.18310546875,-0.1220703125,0.0,-0.0714111328125,0.19775390625,-83.045654296875,-0.186767578125,-0.4833984375,-101.195068359375
17:48:24.367, -0.00478515625,0.0,9.795214843750001,0.014355468750000001,0.014355468750000001,9.814355468750001,0.0,0.0,0.0,-0.06103515625,-0.18310546875,-0.06103515625,-0.0714111328125,0.19775390625,-83.045654296875,-0.186767578125,-0.4833984375,-101.195068359375
17:48:24.470, 0.0,0.0,9.80478515625,0.0,0.0,9.814355468750001,0.0,0.0,0.0,-0.06103515625,-0.18310546875,0.0,-0.0714111328125,0.19775390625,-83.045654296875,-0.186767578125,-0.4833984375,-101.195068359375
17:48:24.586, -0.019140625,0.0,9.780859375,0.0,0.0095703125,9.8,0.0,0.0,0.0,-0.1220703125,-0.30517578125,-0.06103515625,-0.0714111328125,0.19775390625,-83.045654296875,-0.186767578125,-0.4833984375,-101.2005615234375
17:48:24.686, 0.0,0.0,9.8095703125,-0.00478515625,0.028710937500000002,9.8095703125,0.0,0.0,0.0,-0.06103515625,-0.1220703125,-0.06103515625,-0.0714111328125,0.19775390625,-83.045654296875,-0.186767578125,-0.4833984375,-101.2005615234375
17:48:24.800, 0.0,0.014355468750000001,9.780859375,-0.014355468750000001,0.0,9.80478515625,0.0,0.0,0.0,-0.06103515625,-0.06103515625,0.06103515625,-0.0714111328125,0.19775390625,-83.045654296875,-0.186767578125,-0.4833984375,-101.2005615234375
17:48:24.902, -0.014355468750000001,0.0,9.78564453125,0.0095703125,-0.0095703125,9.8095703125,0.0,0.0,0.0,-0.06103515625,-0.244140625,0.0,-0.0714111328125,0.19775390625,-83.045654296875,-0.186767578125,-0.4833984375,-101.195068359375
17:48:25.002, 0.0,0.0095703125,9.78564453125,0.019140625,0.019140625,9.78564453125,0.0,0.0,0.0,0.0,-0.244140625,-0.06103515625,-0.0714111328125,0.19775390625,-83.045654296875,-0.186767578125,-0.4888916015625,-101.2005615234375
17:48:25.117, -0.014355468750000001,0.02392578125,9.78564453125,-0.014355468750000001,0.014355468750000001,9.790429687500001,0.0,0.0,0.0,0.06103515625,-0.1220703125,0.0,-0.0714111328125,0.19775390625,-83.045654296875,-0.1812744140625,-0.4833984375,-101.2005615234375
17:48:25.219, -0.019140625,0.0,9.80478515625,0.014355468750000001,0.02392578125,9.795214843750001,0.0,0.0,0.0,-0.1220703125,-0.30517578125,-0.06103515625,-0.0714111328125,0.19775390625,-83.045654296875,-0.1812744140625,-0.4888916015625,-101.2005615234375
17:48:25.334, -0.00478515625,0.02392578125,9.819140625000001,-0.0095703125,0.019140625,9.780859375,0.0,0.0,0.0,-0.06103515625,-0.1220703125,0.0,-0.0714111328125,0.19775390625,-83.045654296875,-0.1812744140625,-0.4888916015625,-101.2005615234375
17:48:25.449, 0.0,-0.00478515625,9.80478515625,-0.02392578125,-0.019140625,9.77607421875,0.0,0.0,0.0,-0.244140625,-0.30517578125,-0.06103515625,-0.0714111328125,0.19775390625,-83.045654296875,-0.186767578125,-0.4833984375,-101.2005615234375
17:48:25.551, -0.0478515625,0.0095703125,9.8,-0.00478515625,-0.0095703125,9.82392578125,0.0,0.0,0.0,-0.06103515625,-0.30517578125,0.0,-0.0714111328125,0.19775390625,-83.045654296875,-0.186767578125,-0.4833984375,-101.2005615234375
17:48:25.666, 0.0095703125,0.02392578125,9.8,0.0,0.019140625,9.795214843750001,0.0,0.0,0.0,0.0,-0.30517578125,-0.06103515625,-0.0714111328125,0.19775390625,-83.045654296875,-0.1812744140625,-0.4833984375,-101.2005615234375
17:48:25.769, -0.00478515625,-0.014355468750000001,9.814355468750001,0.0,-0.00478515625,9.780859375,0.0,0.0,0.0,-0.18310546875,-0.3662109375,0.0,-0.0714111328125,0.19775390625,-83.045654296875,-0.1812744140625,-0.4833984375,-101.2005615234375
17:48:25.883, -0.019140625,0.0,9.8,-0.0095703125,-0.00478515625,9.8,0.0,0.0,0.0,-0.244140625,-0.1220703125,0.0,-0.0714111328125,0.19775390625,-83.045654296875,-0.1812744140625,-0.4833984375,-101.2005615234375
17:48:25.997, 0.014355468750000001,0.0095703125,9.82392578125,-0.0095703125,0.02392578125,9.814355468750001,0.0,0.0,0.0,-0.1220703125,-0.3662109375,0.0,-0.0714111328125,0.19775390625,-83.045654296875,-0.186767578125,-0.4779052734375,-101.2005615234375
17:48:26.101, 0.0,0.0095703125,9.766503906250001,0.0095703125,0.014355468750000001,9.78564453125,0.0,0.0,0.0,-0.06103515625,-0.18310546875,0.0,-0.0714111328125,0.19775390625,-83.045654296875,-0.186767578125,-0.4833984375,-101.2005615234375
17:48:26.216, -0.019140625,0.014355468750000001,9.8,0.00478515625,-0.0095703125,9.780859375,0.0,0.0,0.0,-0.1220703125,-0.244140625,0.0,-0.0714111328125,0.19775390625,-83.045654296875,-0.186767578125,-0.4833984375,-101.2060546875
17:48:26.332, 0.0,0.0095703125,9.80478515625,0.0,0.02392578125,9.819140625000001,0.0,0.0,0.0,0.0,-0.18310546875,0.0,-0.0714111328125,0.19775390625,-83.045654296875,-0.186767578125,-0.4833984375,-101.2060546875
17:48:26.432, 0.0,0.03828125,9.8095703125,0.0,0.014355468750000001,9.78564453125,0.0,0.0,0.0,-0.06103515625,-0.30517578125,-0.06103515625,-0.0714111328125,0.19775390625,-83.045654296875,-0.186767578125,-0.4833984375,-101.2060546875
17:48:26.546, 0.0,0.02392578125,9.8,0.0,0.00478515625,9.790429687500001,0.0,0.0,0.0,-0.18310546875,-0.30517578125,-0.06103515625,-0.0714111328125,0.19775390625,-83.045654296875,-0.186767578125,-0.4779052734375,-101.2060546875
17:48:26.650, -0.019140625,0.0,9.8,-0.00478515625,0.028710937500000002,9.80478515625,0.0,0.0,0.0,-0.1220703125,-0.18310546875,0.0,-0.0714111328125,0.19775390625,-83.045654296875,-0.186767578125,-0.4833984375,-101.2060546875
17:48:26.750, -0.00478515625,0.00478515625,9.8,0.00478515625,0.02392578125,9.795214843750001,0.0,0.0,0.0,-0.1220703125,-0.1220703125,0.0,-0.0714111328125,0.19775390625,-83.045654296875,-0.1812744140625,-0.4833984375,-101.2060546875
17:48:26.851, 0.0,0.0095703125,9.78564453125,0.0,0.014355468750000001,9.814355468750001,0.0,0.0,0.0,-0.06103515625,-0.30517578125,-0.06103515625,-0.0714111328125,0.19775390625,-83.045654296875,-0.1812744140625,-0.4833984375,-101.2060546875
17:48:26.966, -0.014355468750000001,0.00478515625,9.790429687500001,-0.0095703125,-0.00478515625,9.80478515625,0.0,0.0,0.0,0.0,-0.1220703125,-0.06103515625,-0.0714111328125,0.19775390625,-83.045654296875,-0.1812744140625,-0.4833984375,-101.2060546875
17:48:27.066, -0.02392578125,-0.0095703125,9.814355468750001,0.0,0.028710937500000002,9.814355468750001,0.0,0.0,0.0,-0.06103515625,-0.244140625,-0.1220703125,-0.0714111328125,0.19775390625,-83.045654296875,-0.1812744140625,-0.4833984375,-101.2060546875
17:48:27.167, 0.0,-0.00478515625,9.80478515625,0.0095703125,-0.028710937500000002,9.795214843750001,0.0,0.0,0.0,0.0,-0.18310546875,-0.06103515625,-0.0714111328125,0.19775390625,-83.045654296875,-0.1812744140625,-0.4833984375,-101.2115478515625
17:48:27.280, 0.0,0.00478515625,9.80478515625,-0.00478515625,0.014355468750000001,9.838281250000001,0.0,0.0,0.0,-0.06103515625,-0.30517578125,0.0,-0.0714111328125,0.19775390625,-83.045654296875,-0.1812744140625,-0.4833984375,-101.2115478515625
17:48:27.381, -0.0095703125,0.00478515625,9.790429687500001,-0.0095703125,0.0095703125,9.780859375,0.0,0.0,0.0,-0.06103515625,-0.244140625,0.0,-0.076904296875,0.19775390625,-83.045654296875,-0.1812744140625,-0.4888916015625,-101.217041015625
17:48:27.483, -0.014355468750000001,0.033496093750000004,9.814355468750001,0.0,0.014355468750000001,9.8,0.0,0.0,0.0,-0.06103515625,-0.244140625,0.0,-0.076904296875,0.19775390625,-83.045654296875,-0.17578125,-0.4888916015625,-101.217041015625
17:48:27.598, -0.033496093750000004,0.0,9.780859375,-0.033496093750000004,-0.019140625,9.790429687500001,0.0,0.0,0.0,-0.06103515625,-0.1220703125,-0.06103515625,-0.076904296875,0.19775390625,-83.045654296875,-0.1812744140625,-0.4888916015625,-101.217041015625
17:48:27.713, -0.00478515625,0.019140625,9.8,0.0,0.00478515625,9.771289062500001,0.0,0.0,0.0,-0.06103515625,-0.06103515625,0.1220703125,-0.076904296875,0.19775390625,-83.045654296875,-0.1812744140625,-0.4888916015625,-101.217041015625
17:48:27.815, -0.028710937500000002,0.019140625,9.78564453125,-0.00478515625,-0.019140625,9.80478515625,0.0,0.0,0.0,-0.1220703125,-0.3662109375,0.0,-0.076904296875,0.19775390625,-83.045654296875,-0.1812744140625,-0.4888916015625,-101.217041015625
17:48:27.929, -0.014355468750000001,0.0,9.790429687500001,0.0,0.019140625,9.8,0.0,0.0,0.0,0.0,-0.244140625,0.0,-0.0714111328125,0.19775390625,-83.045654296875,-0.17578125,-0.494384765625,-101.217041015625
17:48:28.031, 0.0,0.02392578125,9.780859375,0.0,0.00478515625,9.795214843750001,0.0,0.0,0.0,-0.06103515625,-0.244140625,-0.1220703125,-0.0714111328125,0.19775390625,-83.045654296875,-0.17578125,-0.494384765625,-101.2225341796875
17:48:28.146, 0.014355468750000001,-0.0095703125,9.8095703125,0.00478515625,0.00478515625,9.814355468750001,0.0,0.0,0.0,-0.18310546875,-0.1220703125,0.0,-0.0714111328125,0.19775390625,-83.045654296875,-0.17578125,-0.494384765625,-101.2225341796875
17:48:28.247, -0.014355468750000001,0.00478515625,9.780859375,-0.0095703125,0.00478515625,9.8095703125,0.0,0.0,0.0,-0.18310546875,-0.244140625,-0.06103515625,-0.0714111328125,0.19775390625,-83.045654296875,-0.1812744140625,-0.4888916015625,-101.22802734375
17:48:28.362, -0.0095703125,0.014355468750000001,9.8,0.00478515625,0.0095703125,9.8,0.0,0.0,0.0,-0.1220703125,-0.244140625,0.0,-0.0714111328125,0.19775390625,-83.045654296875,-0.1812744140625,-0.494384765625,-101.22802734375
17:48:28.465, -0.00478515625,-0.019140625,9.795214843750001,-0.019140625,0.028710937500000002,9.8095703125,0.0,0.0,0.0,-0.18310546875,-0.244140625,0.0,-0.0714111328125,0.19775390625,-83.045654296875,-0.17578125,-0.494384765625,-101.2335205078125
17:48:28.580, 0.00478515625,0.019140625,9.8,-0.02392578125,0.00478515625,9.8095703125,0.0,0.0,0.0,-0.06103515625,-0.30517578125,0.06103515625,-0.0714111328125,0.19775390625,-83.045654296875,-0.17578125,-0.4888916015625,-101.2335205078125
17:48:28.681, 0.0095703125,0.02392578125,9.80478515625,0.0,0.00478515625,9.8095703125,0.0,0.0,0.0,-0.06103515625,-0.18310546875,0.18310546875,-0.0714111328125,0.19775390625,-83.045654296875,-0.17578125,-0.4888916015625,-101.22802734375
17:48:28.795, -0.0095703125,0.00478515625,9.8,-0.00478515625,0.0,9.814355468750001,0.0,0.0,0.0,-0.1220703125,-0.30517578125,0.0,-0.0714111328125,0.19775390625,-83.045654296875,-0.1812744140625,-0.4888916015625,-101.2335205078125
17:48:28.896, -0.00478515625,0.00478515625,9.8095703125,0.019140625,0.00478515625,9.843066406250001,0.0,0.0,0.0,-0.06103515625,-0.3662109375,-0.1220703125,-0.0714111328125,0.19775390625,-83.045654296875,-0.1812744140625,-0.4888916015625,-101.2335205078125
17:48:29.011, -0.028710937500000002,0.0,9.78564453125,0.0095703125,0.04306640625,9.8095703125,0.0,0.0,0.0,0.0,-0.1220703125,-0.1220703125,-0.0714111328125,0.19775390625,-83.045654296875,-0.1812744140625,-0.4888916015625,-101.2335205078125
17:48:29.126, -0.0095703125,0.019140625,9.819140625000001,0.00478515625,0.04306640625,9.819140625000001,0.0,0.0,0.0,0.0,-0.06103515625,0.0,-0.0714111328125,0.19775390625,-83.045654296875,-0.17578125,-0.4888916015625,-101.2335205078125
17:48:29.226, -0.00478515625,-0.00478515625,9.790429687500001,0.0,0.00478515625,9.8095703125,0.0,0.0,0.0,-0.1220703125,-0.1220703125,0.0,-0.0714111328125,0.19775390625,-83.045654296875,-0.17578125,-0.4888916015625,-101.2335205078125
17:48:29.329, 0.0,0.0,9.78564453125,-0.014355468750000001,0.0095703125,9.795214843750001,0.0,0.0,0.0,0.0,-0.06103515625,0.0,-0.0714111328125,0.19775390625,-83.045654296875,-0.17578125,-0.4888916015625,-101.2335205078125
17:48:29.445, 0.0,0.0,9.780859375,0.02392578125,-0.00478515625,9.8095703125,0.0,0.0,0.0,0.0,-0.244140625,-0.06103515625,-0.0714111328125,0.19775390625,-83.045654296875,-0.17578125,-0.4888916015625,-101.2335205078125
17:48:29.546, -0.019140625,0.014355468750000001,9.82392578125,-0.014355468750000001,0.0095703125,9.78564453125,0.0,0.0,0.0,-0.06103515625,-0.06103515625,-0.1220703125,-0.0714111328125,0.19775390625,-83.045654296875,-0.17578125,-0.4888916015625,-101.2335205078125
17:48:29.661, 0.0,0.0095703125,9.80478515625,0.0095703125,0.0,9.82392578125,0.0,0.0,0.0,0.0,-0.18310546875,0.0,-0.0714111328125,0.19775390625,-83.045654296875,-0.1812744140625,-0.4833984375,-101.2335205078125
17:48:29.761, -0.00478515625,0.0095703125,9.80478515625,0.00478515625,0.019140625,9.814355468750001,0.0,0.0,0.0,0.06103515625,-0.18310546875,0.0,-0.0714111328125,0.1922607421875,-83.045654296875,-0.1812744140625,-0.4833984375,-101.2335205078125
17:48:29.875, 0.00478515625,0.014355468750000001,9.8,-0.0095703125,0.014355468750000001,9.78564453125,0.0,0.0,0.0,-0.244140625,-0.30517578125,-0.06103515625,-0.076904296875,0.1922607421875,-83.045654296875,-0.17578125,-0.4779052734375,-101.2335205078125
17:48:29.977, -0.014355468750000001,0.0,9.814355468750001,0.0,0.0095703125,9.8095703125,0.0,0.0,0.0,0.0,-0.244140625,-0.06103515625,-0.076904296875,0.1922607421875,-83.045654296875,-0.17578125,-0.4779052734375,-101.2335205078125
17:48:30.078, -0.0095703125,0.0,9.780859375,0.0,-0.0095703125,9.8,0.0,0.0,0.0,0.0,-0.244140625,0.0,-0.076904296875,0.1922607421875,-83.045654296875,-0.1812744140625,-0.4779052734375,-101.239013671875
17:48:30.194, 0.0,0.0,9.80478515625,0.0095703125,0.019140625,9.80478515625,0.0,0.0,0.0,-0.06103515625,-0.30517578125,-0.1220703125,-0.076904296875,0.1922607421875,-83.045654296875,-0.17578125,-0.4779052734375,-101.239013671875
17:48:30.309, -0.0095703125,0.014355468750000001,9.819140625000001,-0.00478515625,0.00478515625,9.83349609375,0.0,0.0,0.0,0.06103515625,-0.1220703125,-0.06103515625,-0.076904296875,0.1922607421875,-83.045654296875,-0.17578125,-0.4779052734375,-101.239013671875
17:48:30.409, -0.02392578125,0.0095703125,9.77607421875,0.0,-0.00478515625,9.862207031250001,0.0,0.0,0.0,-0.1220703125,-0.18310546875,-0.06103515625,-0.076904296875,0.1922607421875,-83.045654296875,-0.17578125,-0.472412109375,-101.239013671875
17:48:30.510, 0.02392578125,0.03828125,9.8,-0.00478515625,-0.0095703125,9.795214843750001,0.0,0.0,0.0,0.0,-0.3662109375,0.0,-0.076904296875,0.1922607421875,-83.045654296875,-0.17578125,-0.472412109375,-101.239013671875
17:48:30.611, 0.0,0.019140625,9.80478515625,0.0,0.00478515625,9.78564453125,0.0,0.0,0.0,-0.1220703125,-0.18310546875,0.0,-0.076904296875,0.1922607421875,-83.045654296875,-0.1702880859375,-0.4779052734375,-101.239013671875
17:48:30.712, -0.0095703125,-0.00478515625,9.790429687500001,-0.014355468750000001,-0.00478515625,9.780859375,0.0,0.0,0.0,-0.06103515625,-0.18310546875,0.0,-0.076904296875,0.1922607421875,-83.045654296875,-0.17578125,-0.4779052734375,-101.239013671875
17:48:30.824, -0.04306640625,0.019140625,9.790429687500001,0.0095703125,0.0,9.8,0.0,0.0,0.0,-0.06103515625,-0.3662109375,0.0,-0.076904296875,0.1922607421875,-83.045654296875,-0.1702880859375,-0.4833984375,-101.2335205078125
17:48:30.928, -0.00478515625,0.0,9.814355468750001,-0.00478515625,0.0,9.76171875,0.0,0.0,0.0,-0.1220703125,-0.1220703125,0.0,-0.076904296875,0.1922607421875,-83.045654296875,-0.17578125,-0.4833984375,-101.2335205078125
17:48:31.043, -0.0095703125,0.0,9.80478515625,-0.0095703125,0.014355468750000001,9.814355468750001,0.0,0.0,0.0,-0.18310546875,-0.244140625,-0.06103515625,-0.076904296875,0.1922607421875,-83.045654296875,-0.1702880859375,-0.4833984375,-101.239013671875
17:48:31.145, -0.00478515625,0.0,9.795214843750001,0.0,0.00478515625,9.771289062500001,0.0,0.0,0.0,0.0,-0.18310546875,0.0,-0.076904296875,0.1922607421875,-83.045654296875,-0.1702880859375,-0.4833984375,-101.239013671875
17:48:31.259, -0.028710937500000002,0.00478515625,9.766503906250001,0.0095703125,-0.0095703125,9.80478515625,0.0,0.0,0.0,-0.18310546875,-0.18310546875,-0.18310546875,-0.076904296875,0.1922607421875,-83.045654296875,-0.1702880859375,-0.4833984375,-101.239013671875
17:48:31.376, 0.014355468750000001,0.028710937500000002,9.8,-0.0095703125,0.019140625,9.8095703125,0.0,0.0,0.0,-0.06103515625,-0.1220703125,0.0,-0.076904296875,0.1922607421875,-83.045654296875,-0.1702880859375,-0.4779052734375,-101.239013671875
17:48:31.478, 0.00478515625,0.0095703125,9.790429687500001,0.00478515625,0.0095703125,9.8095703125,0.0,0.0,0.0,-0.1220703125,-0.3662109375,-0.06103515625,-0.076904296875,0.1922607421875,-83.045654296875,-0.1702880859375,-0.4833984375,-101.239013671875
17:48:31.590, -0.014355468750000001,0.00478515625,9.80478515625,-0.019140625,0.0095703125,9.78564453125,0.0,0.0,0.0,-0.1220703125,-0.30517578125,0.06103515625,-0.0714111328125,0.1922607421875,-83.045654296875,-0.164794921875,-0.4833984375,-101.2445068359375
17:48:31.693, -0.07177734375,0.0478515625,9.766503906250001,-0.014355468750000001,-0.04306640625,9.7330078125,0.30517578125,-2.01416015625,-147.76611328125,2.01416015625,-4.21142578125,-147.5830078125,-0.054931640625,0.1483154296875,-92.6092529296875,0.0604248046875,-0.670166015625,-111.1431884765625
17:48:31.808, 0.019140625,0.12919921875,9.766503906250001,0.06220703125,0.057421875000000004,9.771289062500001,0.0,-1.0986328125,-177.8564453125,0.244140625,-6.65283203125,-171.7529296875,0.02197265625,0.0384521484375,-107.7593994140625,0.3460693359375,-0.933837890625,-122.7667236328125
17:48:31.910, -0.052636718750000006,-0.07177734375,9.795214843750001,-0.33017578125,0.02392578125,9.87177734375,0.91552734375,-2.38037109375,-220.458984375,1.40380859375,-7.4462890625,-222.35107421875,0.142822265625,-0.0164794921875,-127.96875,1.0601806640625,-1.1590576171875,-146.513671875
17:48:32.025, -0.5598632812500001,0.08134765625000001,9.87177734375,-0.40673828125000006,-0.17705078125,9.646875000000001,-1.03759765625,-0.3662109375,-211.60888671875,1.46484375,-2.44140625,-199.462890625,0.318603515625,0.076904296875,-158.02734375,1.86767578125,-0.8624267578125,-176.33056640625
17:48:32.127, -0.43544921875000003,0.052636718750000006,9.747363281250001,0.00478515625,0.14833984375,9.814355468750001,4.5166015625,-1.64794921875,-174.8046875,3.90625,-7.26318359375,-165.8935546875,0.3350830078125,0.24169921875,-174.13330078125,2.2796630859375,-0.538330078125,164.37744140625
17:48:32.241, 0.1435546875,0.37324218750000004,9.819140625000001,0.15791015625000002,0.0,9.814355468750001,-0.3662109375,-0.54931640625,-223.6328125,0.6103515625,-6.16455078125,-211.181640625,0.5108642578125,0.208740234375,168.057861328125,2.6312255859375,-0.263671875,145.5084228515625
17:48:32.344, -0.014355468750000001,-0.00478515625,9.780859375,0.08134765625000001,-0.028710937500000002,9.78564453125,1.40380859375,-1.46484375,-119.873046875,1.0986328125,-3.60107421875,-116.27197265625,0.50537109375,0.32958984375,147.12890625,2.6751708984375,0.054931640625,131.8524169921875
17:48:32.458, -0.18662109375000002,-0.02392578125,9.8287109375,-0.19619140625,0.00478515625,9.7138671875,0.79345703125,-0.30517578125,-182.861328125,3.60107421875,-4.8828125,-180.72509765625,0.5767822265625,0.3240966796875,125.5462646484375,2.6641845703125,0.5328369140625,107.7044677734375
17:48:32.572, 0.0478515625,-0.028710937500000002,9.780859375,0.22968750000000002,-0.47851562500000006,9.814355468750001,3.47900390625,-2.9296875,-99.7314453125,-5.4931640625,-11.23046875,-116.02783203125,0.4010009765625,0.5548095703125,110.5828857421875,2.4609375,0.85693359375,95.185546875
17:48:32.674, -0.13398437500000002,-0.06220703125,9.780859375,-0.516796875,-0.09091796875000001,9.7330078125,0.18310546875,-0.30517578125,-17.76123046875,-0.91552734375,4.69970703125,-2.99072265625,0.3240966796875,0.5877685546875,108.226318359375,2.2412109375,0.9063720703125,91.3128662109375
17:48:32.775, -0.18183593750000002,-0.16269531250000002,9.8287109375,-0.033496093750000004,-0.06220703125,9.76171875,-0.06103515625,0.1220703125,-60.11962890625,0.54931640625,-0.9765625,-58.837890625,0.2691650390625,0.5767822265625,104.6337890625,2.04345703125,0.9283447265625,87.34130859375
17:48:32.876, 0.03828125,-0.00478515625,9.771289062500001,0.06220703125,-0.16269531250000002,9.795214843750001,0.48828125,-0.67138671875,-122.1923828125,1.953125,-2.0751953125,-118.5302734375,0.1812744140625,0.5767822265625,95.284423828125,1.8731689453125,0.98876953125,77.838134765625
17:48:32.976, -0.13398437500000002,-0.10527343750000001,9.73779296875,-0.0861328125,-0.21054687500000002,9.747363281250001,0.244140625,0.30517578125,-158.99658203125,2.44140625,-2.197265625,-159.3017578125,0.1153564453125,0.5657958984375,83.177490234375,1.702880859375,1.043701171875,65.6597900390625
17:48:33.089, 0.1244140625,0.07177734375,9.77607421875,0.19619140625,0.0,9.76171875,2.197265625,-2.50244140625,-265.380859375,2.25830078125,-0.42724609375,-250.732421875,0.1318359375,0.4339599609375,64.4732666015625,1.614990234375,0.999755859375,46.6864013671875
17:48:33.190, 0.028710937500000002,0.41152343750000003,9.9052734375,-0.43066406250000006,-0.21054687500000002,9.718652343750001,-5.7373046875,4.39453125,-193.7255859375,4.150390625,-6.04248046875,-182.7392578125,0.06591796875,0.384521484375,38.1170654296875,1.3787841796875,0.9722900390625,24.4390869140625
17:48:33.291, -0.2201171875,-0.16269531250000002,9.77607421875,-0.16748046875,-0.27275390625,9.53681640625,0.30517578125,-0.79345703125,-234.80224609375,4.33349609375,-5.31005859375,-233.2763671875,0.0,0.3790283203125,24.4720458984375,1.1590576171875,0.9832763671875,6.9927978515625
17:48:33.406, 0.07177734375,0.014355468750000001,9.766503906250001,0.32060546875,-0.1244140625,9.78564453125,-0.79345703125,-1.28173828125,-188.96484375,1.03759765625,-5.79833984375,-188.5986328125,0.0439453125,0.296630859375,-9.51416015625,1.0601806640625,0.823974609375,-22.862548828125
17:48:33.506, 0.095703125,0.10527343750000001,9.795214843750001,0.17705078125,0.287109375,9.8,2.5634765625,-1.220703125,-183.28857421875,3.41796875,-2.01416015625,-179.931640625,0.186767578125,0.252685546875,-28.0535888671875,1.0601806640625,0.5877685546875,-45.098876953125
17:48:33.607, 0.00478515625,0.0,9.8095703125,0.033496093750000004,-0.014355468750000001,9.780859375,0.54931640625,-0.6103515625,-112.9150390625,1.46484375,-3.173828125,-109.55810546875,0.1812744140625,0.2362060546875,-42.6763916015625,0.999755859375,0.4779052734375,-57.095947265625
17:48:33.707, 0.052636718750000006,0.00478515625,9.780859375,0.033496093750000004,0.0,9.8,0.30517578125,-0.6103515625,-59.5703125,1.28173828125,-2.3193359375,-83.251953125,0.19775390625,0.2032470703125,-49.449462890625,0.98876953125,0.41748046875,-61.41357421875
17:48:33.808, 0.0,-0.028710937500000002,9.790429687500001,0.0095703125,-0.019140625,9.80478515625,0.06103515625,0.06103515625,0.30517578125,0.0,-0.1220703125,-0.244140625,0.1812744140625,0.186767578125,-51.9268798828125,0.889892578125,0.263671875,-68.1427001953125
17:48:33.921, 0.0,-0.00478515625,9.819140625000001,0.00478515625,-0.033496093750000004,9.8095703125,-0.18310546875,-0.06103515625,0.0,-0.06103515625,-0.18310546875,0.0,0.1593017578125,0.17578125,-51.9268798828125,0.8184814453125,0.2252197265625,-68.1427001953125
17:48:34.036, 0.028710937500000002,0.0,9.80478515625,0.028710937500000002,-0.02392578125,9.8287109375,-0.06103515625,0.06103515625,0.0,-0.06103515625,-0.18310546875,0.0,0.1373291015625,0.164794921875,-51.9268798828125,0.758056640625,0.1812744140625,-68.1427001953125
17:48:34.136, 0.02392578125,-0.014355468750000001,9.819140625000001,0.028710937500000002,-0.014355468750000001,9.80478515625,-0.06103515625,0.0,0.06103515625,-0.1220703125,-0.18310546875,0.0,0.120849609375,0.1593017578125,-51.92138671875,0.68115234375,0.1263427734375,-68.13720703125
17:48:34.240, 0.0095703125,0.0,9.790429687500001,0.00478515625,-0.0095703125,9.8095703125,0.0,0.0,0.06103515625,-0.06103515625,-0.244140625,-0.1220703125,0.098876953125,0.1483154296875,-51.92138671875,0.6207275390625,0.087890625,-68.1427001953125
17:48:34.354, 0.0,0.0095703125,9.780859375,0.0095703125,0.019140625,9.8095703125,0.0,0.0,0.1220703125,-0.1220703125,-0.1220703125,0.1220703125,0.0823974609375,0.142822265625,-51.9268798828125,0.5548095703125,0.0439453125,-68.13720703125
17:48:34.457, 0.0,-0.00478515625,9.78564453125,0.057421875000000004,-0.00478515625,9.78564453125,0.0,0.1220703125,0.06103515625,0.0,-0.244140625,0.0,0.0714111328125,0.1373291015625,-51.932373046875,0.50537109375,0.010986328125,-68.13720703125
17:48:34.570, 0.00478515625,-0.00478515625,9.795214843750001,0.02392578125,-0.00478515625,9.819140625000001,0.0,-0.1220703125,-0.18310546875,-0.06103515625,-0.30517578125,0.06103515625,0.054931640625,0.1318359375,-51.932373046875,0.439453125,-0.02197265625,-68.13720703125
17:48:34.672, 0.028710937500000002,-0.0095703125,9.780859375,0.00478515625,-0.00478515625,9.8,-0.06103515625,0.0,-0.06103515625,-0.06103515625,-0.244140625,0.0,0.0384521484375,0.1263427734375,-51.9268798828125,0.3955078125,-0.0494384765625,-68.13720703125
17:48:34.788, -0.00478515625,-0.028710937500000002,9.78564453125,0.0095703125,-0.0095703125,9.82392578125,0.0,-0.1220703125,0.06103515625,-0.1220703125,-0.244140625,-0.06103515625,0.0274658203125,0.120849609375,-51.9268798828125,0.3680419921875,-0.06591796875,-68.13720703125
17:48:34.890, 0.0478515625,-0.03828125,9.795214843750001,0.15791015625000002,0.014355468750000001,9.8,1.52587890625,-1.52587890625,-105.28564453125,0.8544921875,-4.150390625,-103.3935546875,0.0164794921875,0.120849609375,-60.31494140625,0.4229736328125,-0.1922607421875,-76.97021484375
17:48:34.990, 0.04306640625,0.0,9.8,0.057421875000000004,-0.0765625,9.8287109375,0.244140625,-0.06103515625,-53.64990234375,1.15966796875,-0.8544921875,-50.23193359375,0.0604248046875,0.076904296875,-68.00537109375,0.50537109375,-0.340576171875,-84.375
17:48:35.104, -0.019140625,-0.0095703125,9.790429687500001,-0.0478515625,0.0765625,9.8095703125,0.3662109375,-0.48828125,-53.16162109375,1.03759765625,-1.77001953125,-59.2041015625,0.0604248046875,0.06591796875,-70.8453369140625,0.5218505859375,-0.3900146484375,-87.264404296875
17:48:35.219, 0.02392578125,0.0,9.80478515625,0.019140625,-0.10048828125,9.766503906250001,-0.54931640625,-0.18310546875,-32.3486328125,0.9765625,-1.46484375,-39.1845703125,0.1373291015625,0.032958984375,-80.4144287109375,0.6756591796875,-0.5108642578125,-95.9710693359375
17:48:35.320, 0.0,0.028710937500000002,9.790429687500001,0.0095703125,0.057421875000000004,9.8095703125,0.79345703125,-0.48828125,-90.4541015625,1.15966796875,-2.25830078125,-93.75,0.1318359375,0.0439453125,-85.93505859375,0.714111328125,-0.5438232421875,-100.70068359375
17:48:35.420, 0.0095703125,-0.019140625,9.814355468750001,0.08134765625000001,-0.028710937500000002,9.8,0.732421875,-0.79345703125,-63.4765625,0.6103515625,-1.64794921875,-70.6787109375,0.186767578125,0.0384521484375,-93.3563232421875,0.845947265625,-0.6097412109375,-108.3416748046875
17:48:35.522, -0.0095703125,0.0095703125,9.8,0.06220703125,-0.04306640625,9.819140625000001,0.0,-0.06103515625,-0.79345703125,0.1220703125,-0.30517578125,-5.9814453125,0.186767578125,0.0384521484375,-95.5426025390625,0.867919921875,-0.648193359375,-111.5057373046875
17:48:35.636, 0.00478515625,0.019140625,9.82392578125,0.0,0.02392578125,9.8,-0.1220703125,-0.06103515625,0.0,0.0,-0.06103515625,0.0,0.1702880859375,0.0494384765625,-95.548095703125,0.7965087890625,-0.6427001953125,-111.5057373046875
17:48:35.738, -0.014355468750000001,0.0,9.8095703125,0.00478515625,0.0,9.814355468750001,-0.1220703125,0.0,-0.18310546875,-0.06103515625,-0.30517578125,-0.06103515625,0.1483154296875,0.054931640625,-95.548095703125,0.7305908203125,-0.6317138671875,-111.5057373046875
17:48:35.854, -0.00478515625,0.028710937500000002,9.771289062500001,-0.014355468750000001,0.03828125,9.790429687500001,0.06103515625,-0.06103515625,0.244140625,0.0,-0.42724609375,0.0,0.1373291015625,0.0604248046875,-95.548095703125,0.6866455078125,-0.626220703125,-111.5057373046875
17:48:35.968, 0.0,0.0095703125,9.80478515625,-0.0095703125,-0.0478515625,9.780859375,-0.1220703125,0.0,0.06103515625,-0.06103515625,-0.1220703125,-0.06103515625,0.120849609375,0.0714111328125,-95.5535888671875,0.6207275390625,-0.615234375,-111.5057373046875
17:48:36.069, -0.028710937500000002,-0.00478515625,9.795214843750001,-0.033496093750000004,0.0,9.78564453125,0.1220703125,0.0,-0.06103515625,-0.1220703125,-0.244140625,-0.06103515625,0.1043701171875,0.076904296875,-95.55908203125,0.560302734375,-0.604248046875,-111.5057373046875
17:48:36.170, 0.00478515625,0.0,9.78564453125,-0.00478515625,-0.00478515625,9.766503906250001,0.0,-0.06103515625,-0.244140625,-0.1220703125,-0.244140625,-0.06103515625,0.0933837890625,0.0823974609375,-95.55908203125,0.5218505859375,-0.5987548828125,-111.5057373046875
17:48:36.284, -0.0095703125,0.014355468750000001,9.795214843750001,0.014355468750000001,0.0095703125,9.78564453125,0.0,0.06103515625,0.3662109375,-0.1220703125,-0.42724609375,0.0,0.0823974609375,0.087890625,-95.55908203125,0.516357421875,-0.59326171875,-111.5057373046875
17:48:36.387, 0.0,0.019140625,9.814355468750001,0.014355468750000001,-0.0095703125,9.78564453125,-0.06103515625,-0.1220703125,-0.06103515625,-0.18310546875,-0.06103515625,0.0,0.06591796875,0.0933837890625,-95.5645751953125,0.4339599609375,-0.5877685546875,-111.500244140625
17:48:36.501, 0.0,0.00478515625,9.78564453125,0.0,0.0,9.82392578125,0.0,0.06103515625,0.0,0.0,-0.30517578125,0.0,0.054931640625,0.1043701171875,-95.5645751953125,0.3900146484375,-0.582275390625,-111.500244140625
17:48:36.602, -0.04306640625,0.04306640625,9.78564453125,-0.033496093750000004,0.00478515625,9.80478515625,-0.30517578125,-0.06103515625,-0.3662109375,-0.06103515625,-0.18310546875,0.0,0.0494384765625,0.10986328125,-95.570068359375,0.37353515625,-0.5767822265625,-111.4947509765625
17:48:36.704, -0.00478515625,-0.0095703125,9.795214843750001,-0.0095703125,0.019140625,9.8095703125,-0.06103515625,0.0,-0.30517578125,0.0,-0.1220703125,-0.06103515625,0.032958984375,0.10986328125,-95.570068359375,0.3240966796875,-0.5712890625,-111.500244140625
17:48:36.805, -0.019140625,0.0095703125,9.790429687500001,0.0,0.014355468750000001,9.76171875,0.06103515625,0.0,0.0,-0.1220703125,-0.1220703125,-0.06103515625,0.02197265625,0.10986328125,-95.570068359375,0.3021240234375,-0.5712890625,-111.500244140625
17:48:36.918, -0.0095703125,0.0,9.78564453125,-0.00478515625,0.028710937500000002,9.795214843750001,-0.06103515625,0.0,-0.1220703125,0.0,-0.1220703125,0.06103515625,0.0164794921875,0.1153564453125,-95.5755615234375,0.2691650390625,-0.5657958984375,-111.500244140625
17:48:37.019, -0.00478515625,0.04306640625,9.795214843750001,-0.028710937500000002,0.00478515625,9.814355468750001,0.0,0.0,-0.244140625,-0.06103515625,-0.1220703125,0.0,0.010986328125,0.120849609375,-95.5810546875,0.2362060546875,-0.5657958984375,-111.500244140625
17:48:37.133, 0.00478515625,0.019140625,9.795214843750001,0.00478515625,0.019140625,9.8287109375,0.0,-0.06103515625,0.06103515625,-0.06103515625,-0.244140625,0.0,0.0,0.120849609375,-95.592041015625,0.208740234375,-0.560302734375,-111.500244140625
17:48:37.235, -0.0095703125,-0.019140625,9.80478515625,0.0095703125,0.0,9.819140625000001,-0.1220703125,0.0,-0.18310546875,0.06103515625,-0.3662109375,0.0,-0.0054931640625,0.1263427734375,-95.592041015625,0.186767578125,-0.5548095703125,-111.500244140625
17:48:37.335, -0.00478515625,-0.00478515625,9.780859375,0.0,0.0,9.843066406250001,-0.06103515625,-0.06103515625,-0.1220703125,0.0,-0.18310546875,0.0,-0.010986328125,0.1263427734375,-95.5975341796875,0.1812744140625,-0.560302734375,-111.500244140625
17:48:37.449, 0.0,0.0095703125,9.795214843750001,-0.0095703125,0.0,9.814355468750001,0.0,0.0,0.0,0.0,-0.18310546875,0.0,-0.010986328125,0.1263427734375,-95.60302734375,0.1483154296875,-0.5548095703125,-111.500244140625
17:48:37.551, -0.02392578125,0.00478515625,9.790429687500001,-0.019140625,0.0,9.80478515625,0.0,0.0,-0.244140625,-0.1220703125,-0.1220703125,-0.1220703125,-0.02197265625,0.1263427734375,-95.6085205078125,0.1263427734375,-0.54931640625,-111.500244140625
17:48:37.665, -0.033496093750000004,0.014355468750000001,9.780859375,-0.0095703125,0.02392578125,9.8095703125,0.0,0.0,0.06103515625,-0.06103515625,-0.18310546875,0.0,-0.0274658203125,0.1318359375,-95.60302734375,0.10986328125,-0.54931640625,-111.4947509765625
17:48:37.768, -0.0095703125,0.0,9.780859375,-0.014355468750000001,0.0,9.814355468750001,0.06103515625,-0.06103515625,-0.244140625,-0.1220703125,-0.1220703125,0.0,-0.0274658203125,0.1318359375,-95.6085205078125,0.098876953125,-0.5438232421875,-111.4947509765625
17:48:37.883, 0.0,0.0095703125,9.78564453125,0.0,-0.014355468750000001,9.75693359375,-0.18310546875,-0.1220703125,0.18310546875,0.0,-0.30517578125,0.0,-0.032958984375,0.1318359375,-95.6085205078125,0.0714111328125,-0.5438232421875,-111.4947509765625
17:48:37.999, 0.00478515625,0.0,9.8,-0.00478515625,-0.02392578125,9.766503906250001,0.0,0.0,0.0,-0.244140625,-0.06103515625,0.06103515625,-0.0384521484375,0.1373291015625,-95.614013671875,0.054931640625,-0.538330078125,-111.4947509765625
17:48:38.099, -0.028710937500000002,0.0,9.78564453125,0.0,-0.014355468750000001,9.398046875,0.0,-0.1220703125,0.18310546875,-0.18310546875,-0.30517578125,0.0,-0.0439453125,0.1373291015625,-95.6195068359375,0.0439453125,-0.5328369140625,-111.4947509765625
17:48:38.214, -0.014355468750000001,0.00478515625,9.780859375,-0.019140625,0.00478515625,9.843066406250001,-0.1220703125,-0.06103515625,-0.1220703125,-0.06103515625,-0.3662109375,0.0,-0.0494384765625,0.1373291015625,-95.625,0.032958984375,-0.538330078125,-111.4947509765625
17:48:38.318, -0.0095703125,0.0095703125,9.8,-0.019140625,0.00478515625,9.795214843750001,0.0,0.06103515625,0.18310546875,-0.06103515625,-0.18310546875,0.0,-0.054931640625,0.1373291015625,-95.6304931640625,0.010986328125,-0.538330078125,-111.4947509765625
17:48:38.432, 0.00478515625,0.019140625,9.771289062500001,-0.014355468750000001,0.014355468750000001,9.8,0.0,0.0,-0.42724609375,-0.06103515625,-0.3662109375,0.0,-0.054931640625,0.142822265625,-95.635986328125,0.0,-0.5328369140625,-111.4947509765625
