Time, AccX1, AccY1, AccZ1, AccX2, AccY2, AccZ2, AngVelX1, AngVelY1, AngVelZ1, AngVelX2, AngVelY2, AngVelZ2
11:12:48.564, 0.6507812500000001,0.708203125,9.718652343750001,0.0,0.0,0.0,-0.732421875,1.5869140625,2.3193359375,0.0,0.0,0.0
11:12:48.665, 2.0719726562500003,0.8852539062500001,9.5224609375,1.894921875,-0.20576171875000002,9.622949218750001,1.64794921875,0.30517578125,-1.220703125,-0.18310546875,0.0,0.0
11:12:48.776, 2.04326171875,0.9953125,9.5224609375,1.8614257812500001,-0.19140625,9.60859375,0.9765625,0.3662109375,-2.13623046875,-0.06103515625,0.0,0.0
11:12:48.904, 2.1198242187500003,1.2728515625,9.45068359375,1.8901367187500002,-0.20576171875000002,9.6181640625,-0.54931640625,0.48828125,1.77001953125,-0.1220703125,0.0,-0.06103515625
11:12:49.015, 2.06240234375,1.225,9.551171875000001,1.8997070312500002,-0.21533203125000003,9.60859375,-3.96728515625,2.13623046875,7.01904296875,0.1220703125,0.0,-0.06103515625
11:12:49.126, 1.97626953125,0.9905273437500001,9.589453125,1.91884765625,-0.21533203125000003,9.61337890625,-2.44140625,1.03759765625,11.23046875,0.0,-0.06103515625,0.0
11:12:49.239, 2.0958984375000003,0.7464843750000001,9.555957031250001,1.9092773437500001,-0.19619140625,9.646875000000001,-2.9296875,1.708984375,11.53564453125,0.0,0.0,0.0
11:12:49.348, 2.06240234375,0.27753906250000004,9.48896484375,1.88056640625,-0.2201171875,9.63251953125,-6.103515625,1.03759765625,9.033203125,0.0,0.0,0.0
11:12:49.460, 2.0289062500000004,0.27753906250000004,9.627734375000001,1.88056640625,-0.23447265625000002,9.61337890625,-3.0517578125,1.0986328125,5.2490234375,0.0,0.0,0.0
11:12:49.571, 1.9954101562500002,0.21054687500000002,9.603808593750001,1.87099609375,-0.17705078125,9.6373046875,0.67138671875,0.3662109375,0.9765625,0.0,0.0,0.0
11:12:49.683, 1.990625,0.11962890625000001,9.58466796875,1.8997070312500002,-0.2009765625,9.61337890625,5.0048828125,-0.67138671875,-4.5166015625,0.0,0.0,0.0
11:12:49.793, 2.04326171875,0.42109375000000004,9.5607421875,1.8901367187500002,-0.19619140625,9.603808593750001,7.14111328125,-0.1220703125,-10.55908203125,0.0,0.0,0.0
11:12:49.905, 2.0193359375,0.5598632812500001,9.49375,1.9044921875,-0.21054687500000002,9.6181640625,8.48388671875,-1.40380859375,-12.8173828125,0.0,0.0,0.0
11:12:50.015, 1.95234375,1.0862304687500002,9.508105468750001,1.9140625000000002,-0.19619140625,9.627734375000001,11.23046875,-1.28173828125,-12.14599609375,0.0,0.0,0.0
11:12:50.127, 2.04326171875,1.5886718750000002,9.484179687500001,1.9044921875,-0.18183593750000002,9.61337890625,8.4228515625,-0.732421875,-9.33837890625,0.0,0.0,0.0
11:12:50.239, 2.009765625,1.8040039062500002,9.4458984375,1.8901367187500002,-0.21054687500000002,9.627734375000001,1.15966796875,-0.18310546875,-2.44140625,0.0,0.0,0.0
11:12:50.349, 1.9954101562500002,1.703515625,9.39326171875,1.894921875,-0.20576171875000002,9.64208984375,-2.25830078125,0.244140625,4.21142578125,0.0,0.0,0.0
11:12:50.460, 2.0193359375,1.4833984375,9.484179687500001,1.8901367187500002,-0.19140625,9.6373046875,-5.31005859375,0.6103515625,8.9111328125,0.0,0.0,0.0
11:12:50.571, 2.0049804687500004,1.22021484375,9.30234375,1.9236328125000002,-0.21054687500000002,9.59423828125,-9.70458984375,0.48828125,13.24462890625,0.0,0.0,0.0
11:12:50.682, 2.04326171875,0.80869140625,9.68037109375,1.88056640625,-0.13876953125000002,9.589453125,-11.23046875,3.0517578125,15.7470703125,0.0,0.0,0.0
11:12:50.793, 2.0001953125000003,0.56943359375,9.58466796875,1.8470703125,-0.21533203125000003,9.503320312500001,-10.43701171875,-0.3662109375,15.80810546875,0.0,0.0,0.0
11:12:50.904, 1.97626953125,0.25361328125000004,9.3501953125,1.8757812500000002,-0.20576171875000002,9.670800781250001,-8.11767578125,2.25830078125,13.427734375,0.0,0.0,0.0
11:12:51.015, 2.0193359375,0.014355468750000001,9.814355468750001,1.9379882812500002,-0.22968750000000002,9.6181640625,-5.615234375,0.18310546875,8.6669921875,0.0,0.0,0.0
11:12:51.126, 1.9954101562500002,-0.033496093750000004,9.3693359375,1.87099609375,-0.15791015625000002,9.651660156250001,-4.2724609375,0.18310546875,5.31005859375,0.0,0.0,0.0
11:12:51.237, 1.9236328125000002,-0.0095703125,9.790429687500001,1.95234375,-0.2201171875,9.599023437500001,0.54931640625,-1.64794921875,1.03759765625,0.0,0.0,0.0
11:12:51.348, 2.0001953125000003,-0.1244140625,9.512890625,1.8901367187500002,-0.16269531250000002,9.66123046875,2.13623046875,0.06103515625,-1.64794921875,0.0,0.0,0.0
11:12:51.459, 1.91884765625,0.028710937500000002,9.699511718750001,1.88056640625,-0.20576171875000002,9.651660156250001,2.13623046875,-0.67138671875,-6.16455078125,0.0,0.0,0.0
11:12:51.570, 2.009765625,0.13876953125000002,9.5607421875,1.9140625000000002,-0.15791015625000002,9.49853515625,6.34765625,-0.732421875,-9.1552734375,0.0,0.0,0.0
11:12:51.681, 2.0049804687500004,0.40673828125000006,9.4650390625,1.9044921875,-0.23925781250000003,9.670800781250001,5.615234375,0.91552734375,-9.521484375,0.0,0.0,0.0
11:12:51.792, 1.9236328125000002,0.68427734375,9.670800781250001,1.894921875,-0.17705078125,9.579882812500001,7.080078125,-0.42724609375,-9.27734375,0.0,0.0,0.0
11:12:51.903, 2.18203125,0.7895507812500001,9.22578125,1.8853515625000001,-0.20576171875000002,9.666015625,4.69970703125,2.44140625,-7.01904296875,0.0,0.0,0.0
11:12:52.014, 1.8470703125,1.0048828125,9.6373046875,1.87099609375,-0.18183593750000002,9.627734375000001,3.23486328125,4.33349609375,-3.2958984375,0.0,0.0,0.0
11:12:52.126, 2.04326171875,0.9570312500000001,9.49375,1.8997070312500002,-0.22968750000000002,9.627734375000001,-1.28173828125,1.953125,1.8310546875,0.0,0.0,0.0
11:12:52.237, 1.8518554687500002,0.765625,9.61337890625,1.8997070312500002,-0.2009765625,9.622949218750001,-2.44140625,1.03759765625,5.126953125,0.0,0.0,0.0
11:12:52.348, 1.77529296875,0.49765625,9.51767578125,1.8901367187500002,-0.16748046875,9.61337890625,-1.15966796875,2.685546875,3.11279296875,0.0,0.0,0.0
11:12:52.459, 1.8087890625,0.5598632812500001,9.6564453125,1.9140625000000002,-0.19140625,9.63251953125,0.9765625,1.52587890625,-0.6103515625,0.0,0.0,0.0
11:12:52.571, 1.77529296875,0.6794921875000001,9.6373046875,1.8853515625000001,-0.22968750000000002,9.60859375,1.28173828125,1.15966796875,-2.9296875,0.0,0.0,0.0
11:12:52.682, 1.6987304687500002,0.88046875,9.59423828125,1.8853515625000001,-0.20576171875000002,9.622949218750001,0.42724609375,0.3662109375,-1.03759765625,0.0,0.0,0.0
11:12:52.792, 1.8135742187500001,0.8326171875,9.589453125,1.8853515625000001,-0.21533203125000003,9.646875000000001,-1.0986328125,0.732421875,0.79345703125,0.0,0.0,0.0
11:12:52.903, 1.7226562500000002,0.7273437500000001,9.512890625,1.9092773437500001,-0.36845703125,9.68515625,-0.30517578125,1.3427734375,2.50244140625,-0.06103515625,-0.06103515625,0.244140625
11:12:53.015, 2.58876953125,0.669921875,10.1828125,1.3733398437500002,-0.40673828125000006,8.0390625,-1.0986328125,5.43212890625,1.15966796875,0.18310546875,2.0751953125,0.06103515625
11:12:53.126, 1.53603515625,0.49287109375000004,9.70908203125,1.73701171875,-0.37802734375,9.9435546875,-1.220703125,-5.43212890625,1.77001953125,2.38037109375,-1.77001953125,0.0
11:12:53.237, 1.36376953125,0.6794921875000001,9.890917968750001,1.83271484375,-0.0765625,9.53681640625,0.3662109375,5.2490234375,-0.3662109375,-0.9765625,-1.0986328125,0.06103515625
11:12:53.349, 1.282421875,0.6747070312500001,9.603808593750001,1.72744140625,-0.2201171875,9.675585937500001,1.5869140625,-0.79345703125,-1.64794921875,0.0,0.0,-0.1220703125
11:12:53.459, 1.4546875000000001,0.6268554687500001,9.6373046875,1.8901367187500002,-0.22490234375,9.51767578125,0.48828125,0.1220703125,0.3662109375,-0.18310546875,0.1220703125,0.0
11:12:53.571, 1.5551757812500002,0.74169921875,9.66123046875,1.8853515625000001,-0.18183593750000002,9.63251953125,-0.8544921875,1.03759765625,-0.30517578125,0.0,-0.06103515625,0.0
11:12:53.683, 1.378125,0.66513671875,9.718652343750001,1.9236328125000002,-0.18662109375000002,9.627734375000001,1.0986328125,1.3427734375,-0.1220703125,-0.18310546875,-0.1220703125,0.0
11:12:53.793, 1.6604492187500002,0.7512695312500001,9.412402343750001,1.9475585937500002,-0.19619140625,9.60859375,0.06103515625,0.732421875,-0.06103515625,0.06103515625,-0.06103515625,0.0
11:12:53.905, 1.41640625,0.708203125,9.8287109375,1.9236328125000002,-0.2009765625,9.627734375000001,0.0,0.18310546875,0.1220703125,-0.06103515625,0.0,-0.1220703125
11:12:54.016, 1.5503906250000001,0.7034179687500001,9.51767578125,1.91884765625,-0.18183593750000002,9.575097656250001,0.18310546875,0.79345703125,0.54931640625,-0.06103515625,0.18310546875,0.1220703125
11:12:54.127, 1.4546875000000001,0.669921875,9.7330078125,1.91884765625,-0.2201171875,9.6373046875,-0.732421875,0.0,0.91552734375,0.0,0.0,0.1220703125
11:12:54.238, 1.39248046875,0.66513671875,9.63251953125,1.856640625,-0.19140625,9.627734375000001,-0.42724609375,-0.18310546875,0.06103515625,0.1220703125,-0.06103515625,0.06103515625
11:12:54.349, 1.4211914062500002,0.6268554687500001,9.7521484375,2.56962890625,-0.9474609375,12.752441406250002,0.42724609375,0.0,0.30517578125,2.74658203125,-5.31005859375,-0.48828125
11:12:54.460, 0.9953125,0.82783203125,9.8,1.41162109375,0.0478515625,7.483984375,-1.15966796875,5.4931640625,0.1220703125,1.8310546875,-1.220703125,0.06103515625
11:12:54.571, 1.1675781250000001,0.7751953125000001,9.37890625,1.8087890625,-0.10048828125,9.120507812500001,1.0986328125,-2.38037109375,-1.8310546875,-0.06103515625,-0.54931640625,0.1220703125
11:12:54.682, 1.6365234375000002,0.6986328125000001,9.575097656250001,1.9379882812500002,-0.20576171875000002,9.51767578125,-0.18310546875,1.03759765625,-0.06103515625,0.0,-0.244140625,0.06103515625
11:12:54.793, 1.3111328125000001,0.71298828125,9.58466796875,1.9427734375,-0.17705078125,9.718652343750001,-1.0986328125,0.06103515625,0.30517578125,0.0,-0.06103515625,0.06103515625
11:12:54.905, 1.2728515625,0.7991210937500001,9.80478515625,1.9475585937500002,-0.20576171875000002,9.551171875000001,0.244140625,1.40380859375,0.8544921875,0.1220703125,-0.18310546875,0.0
11:12:55.016, 1.53125,0.61728515625,9.675585937500001,1.8518554687500002,-0.20576171875000002,9.63251953125,-1.52587890625,2.01416015625,1.15966796875,0.06103515625,0.0,0.0
11:12:55.127, 1.1819335937500002,0.66513671875,9.694726562500001,1.79921875,-0.21533203125000003,9.603808593750001,0.48828125,-0.67138671875,1.03759765625,0.244140625,0.18310546875,0.06103515625
11:12:55.239, 1.44033203125,0.64599609375,9.484179687500001,1.894921875,-0.21533203125000003,9.666015625,-0.1220703125,0.0,1.03759765625,0.0,-0.06103515625,0.0
11:12:55.351, 1.34462890625,0.6029296875000001,9.766503906250001,1.8757812500000002,-0.20576171875000002,9.63251953125,-0.54931640625,0.18310546875,0.30517578125,0.06103515625,-0.06103515625,0.06103515625
11:12:55.462, 1.40205078125,0.6268554687500001,9.603808593750001,1.87099609375,-0.22968750000000002,9.64208984375,0.1220703125,0.244140625,0.732421875,0.0,0.0,0.0
11:12:55.573, 1.39248046875,0.5359375000000001,9.670800781250001,1.8853515625000001,-0.18662109375000002,9.63251953125,-0.3662109375,0.30517578125,-0.67138671875,0.06103515625,0.0,0.0
11:12:55.684, 1.2919921875,0.6268554687500001,9.670800781250001,1.8757812500000002,-0.18662109375000002,9.651660156250001,1.52587890625,-0.06103515625,-1.953125,0.0,-0.18310546875,0.06103515625
11:12:55.796, 1.3829101562500001,0.7704101562500001,9.603808593750001,1.9044921875,-0.21533203125000003,9.6181640625,0.91552734375,-0.48828125,0.0,0.0,0.0,0.0
11:12:55.907, 1.30634765625,0.6029296875000001,9.718652343750001,1.8757812500000002,-0.19140625,9.6181640625,-0.79345703125,0.1220703125,0.18310546875,0.0,0.0,0.0
11:12:56.018, 1.4211914062500002,0.69384765625,9.68037109375,1.9092773437500001,-0.21533203125000003,9.622949218750001,0.8544921875,-0.3662109375,-1.46484375,0.0,0.0,0.0
11:12:56.130, 1.3685546875,0.7895507812500001,9.48896484375,1.8853515625000001,-0.22968750000000002,9.54638671875,0.48828125,-0.91552734375,0.06103515625,0.0,0.0,0.0
11:12:56.241, 1.320703125,0.6986328125000001,9.814355468750001,1.8757812500000002,-0.2009765625,9.646875000000001,-0.732421875,0.9765625,0.9765625,0.0,0.0,0.0
11:12:56.352, 1.3972656250000002,0.6555664062500001,9.6181640625,1.9140625000000002,-0.21054687500000002,9.5703125,-0.06103515625,0.18310546875,0.732421875,0.0,0.0,0.0
11:12:56.464, 1.320703125,0.6747070312500001,9.6373046875,1.87099609375,-0.21533203125000003,9.56552734375,-0.244140625,0.0,0.9765625,0.0,0.0,0.0
11:12:56.574, 1.36376953125,0.6125,9.70908203125,1.8901367187500002,-0.21533203125000003,9.66123046875,-1.15966796875,0.06103515625,1.0986328125,0.0,0.0,0.0
11:12:56.685, 1.3685546875,0.6316406250000001,9.6373046875,1.88056640625,-0.19619140625,9.599023437500001,-0.3662109375,-0.244140625,-0.6103515625,0.0,0.0,0.0
11:12:56.797, 1.378125,0.90439453125,9.862207031250001,1.8997070312500002,-0.19619140625,9.627734375000001,1.220703125,5.43212890625,2.5634765625,0.0,0.0,0.0
11:12:56.908, 1.07666015625,0.7895507812500001,10.52734375,1.8901367187500002,-0.21533203125000003,9.6181640625,2.74658203125,-2.50244140625,6.65283203125,0.0,0.0,0.0
11:12:57.019, 1.5503906250000001,0.47851562500000006,9.264062500000001,1.8853515625000001,-0.19619140625,9.6181640625,-2.62451171875,2.5634765625,0.42724609375,0.0,0.0,0.0
11:12:57.131, 1.3685546875,0.5790039062500001,9.670800781250001,1.8901367187500002,-0.19140625,9.63251953125,-0.42724609375,1.52587890625,0.48828125,0.0,0.0,0.0
11:12:57.241, 1.378125,0.6220703125,9.83349609375,1.894921875,-0.18662109375000002,9.59423828125,0.6103515625,0.06103515625,-0.30517578125,0.0,0.0,0.0
11:12:57.351, 1.3733398437500002,0.6603515625,9.6373046875,1.8997070312500002,-0.24404296875,9.651660156250001,0.42724609375,0.6103515625,1.3427734375,0.0,0.0,0.0
11:12:57.463, 1.33984375,0.5120117187500001,9.63251953125,1.8614257812500001,-0.18662109375000002,9.59423828125,-1.52587890625,0.0,0.18310546875,0.0,0.0,0.0
11:12:57.574, 1.4211914062500002,0.52158203125,9.670800781250001,1.8614257812500001,-0.2009765625,9.6373046875,0.48828125,0.0,-1.15966796875,0.0,0.0,0.0
11:12:57.684, 1.31591796875,0.14833984375,10.01533203125,2.0719726562500003,0.033496093750000004,10.59912109375,1.46484375,0.0,1.3427734375,-0.1220703125,-0.6103515625,0.06103515625
11:12:57.796, 1.25849609375,0.8134765625000001,9.73779296875,2.0049804687500004,-0.41152343750000003,9.85263671875,-0.42724609375,0.0,-4.21142578125,-0.30517578125,-0.9765625,0.244140625
11:12:57.908, 1.473828125,0.41152343750000003,9.6181640625,1.8853515625000001,-0.15791015625000002,9.666015625,-0.54931640625,-2.8076171875,-0.91552734375,0.06103515625,0.30517578125,0.06103515625
11:12:58.020, 1.35419921875,0.41630859375,9.44111328125,1.8614257812500001,-0.2009765625,9.58466796875,-1.03759765625,-2.197265625,-10.25390625,0.0,-0.1220703125,0.06103515625
11:12:58.132, 1.473828125,0.45937500000000003,10.005761718750001,1.8853515625000001,-0.153125,9.651660156250001,-1.0986328125,-0.8544921875,-14.09912109375,0.18310546875,0.0,0.0
11:12:58.243, 1.45947265625,0.9283203125,9.42197265625,1.8614257812500001,-0.2583984375,9.63251953125,7.9345703125,-3.5400390625,-17.9443359375,-0.244140625,0.0,-0.06103515625
11:12:58.354, 1.2632812500000001,1.1771484375,9.5416015625,1.9092773437500001,-0.19619140625,9.651660156250001,0.9765625,2.3193359375,-4.21142578125,0.0,0.0,0.1220703125
11:12:58.465, 1.1771484375,0.7895507812500001,9.8478515625,1.8183593750000002,-0.21054687500000002,9.603808593750001,1.03759765625,1.03759765625,4.8828125,0.0,0.06103515625,0.0
11:12:58.576, 1.48818359375,0.9426757812500001,9.699511718750001,1.8997070312500002,-0.21533203125000003,9.61337890625,6.103515625,-7.87353515625,0.9765625,0.0,0.0,0.0
11:12:58.688, 1.6078125,1.3350585937500001,9.46982421875,1.8375000000000001,-0.22490234375,9.61337890625,2.01416015625,-0.06103515625,-5.79833984375,-0.18310546875,0.0,-0.06103515625
11:12:58.799, 1.5264648437500001,1.3494140625000002,9.4650390625,1.9092773437500001,-0.19140625,9.58466796875,-0.42724609375,3.11279296875,-0.1220703125,0.1220703125,0.0,0.0
11:12:58.910, 1.41640625,0.9953125,9.819140625000001,1.8901367187500002,-0.19140625,9.6373046875,1.46484375,0.67138671875,1.03759765625,0.0,0.0,0.1220703125
11:12:59.022, 1.44990234375,1.2345703125,9.503320312500001,1.8901367187500002,-0.21533203125000003,9.60859375,-0.67138671875,-1.03759765625,-3.41796875,0.06103515625,0.0,0.06103515625
11:12:59.134, 1.5025390625000001,1.26806640625,9.599023437500001,1.894921875,-0.20576171875000002,9.64208984375,-1.5869140625,0.30517578125,0.18310546875,0.0,0.0,0.0
11:12:59.246, 1.473828125,1.0814453125,9.589453125,1.88056640625,-0.21533203125000003,9.627734375000001,-1.3427734375,0.30517578125,1.89208984375,0.0,0.0,0.0
11:12:59.358, 1.225,1.03359375,9.63251953125,1.87099609375,-0.20576171875000002,9.627734375000001,-1.28173828125,3.60107421875,2.3193359375,0.0,0.0,0.0
11:12:59.470, 1.6173828125,0.57421875,9.886132812500001,1.8662109375000002,-0.19140625,9.6181640625,4.82177734375,-5.67626953125,-8.056640625,0.0,0.0,0.0
11:12:59.581, 1.5982421875000001,1.4259765625,9.206640625,1.9044921875,-0.2009765625,9.666015625,2.197265625,2.62451171875,-7.9345703125,0.0,0.0,0.0
11:12:59.692, 1.473828125,1.6604492187500002,9.6373046875,1.88056640625,-0.18183593750000002,9.6181640625,-1.64794921875,-10.009765625,-4.7607421875,0.0,0.0,0.0
11:12:59.803, 1.5599609375,1.1771484375,9.8095703125,1.87099609375,-0.20576171875000002,9.599023437500001,-9.70458984375,-6.7138671875,7.080078125,0.0,0.0,0.0
11:12:59.914, 2.1006835937500004,1.091015625,9.3693359375,1.8518554687500002,-0.23447265625000002,9.64208984375,-1.40380859375,-15.13671875,7.99560546875,0.0,0.0,0.0
11:13:00.025, 2.7706054687500004,1.15322265625,8.900390625,1.91884765625,-0.30625,9.675585937500001,1.5869140625,-25.57373046875,14.70947265625,0.0,0.0,0.0
11:13:00.137, 2.5313476562500004,1.0383789062500002,8.79990234375,1.8997070312500002,-0.2201171875,9.718652343750001,7.568359375,-4.57763671875,9.58251953125,0.0,0.0,0.0
11:13:00.248, 1.8853515625000001,1.0144531250000002,9.9052734375,1.8757812500000002,-0.19140625,9.603808593750001,-1.64794921875,15.56396484375,2.74658203125,0.0,0.0,0.0
11:13:00.359, 2.1198242187500003,0.6268554687500001,9.412402343750001,1.8997070312500002,-0.21054687500000002,9.599023437500001,-4.94384765625,-0.6103515625,-6.8359375,0.0,0.0,0.0
11:13:00.471, 3.5697265625,1.1101562500000002,9.53681640625,1.87099609375,-0.22490234375,9.66123046875,1.15966796875,1.953125,-7.75146484375,0.0,0.0,0.0
11:13:00.582, 1.53125,1.0240234375000001,9.9244140625,1.8757812500000002,-0.22490234375,9.59423828125,3.7841796875,10.25390625,-10.92529296875,0.0,0.0,0.0
11:13:00.693, 3.0146484375,1.10537109375,8.99609375,1.9140625000000002,-0.21533203125000003,9.780859375,2.62451171875,-4.69970703125,-9.21630859375,0.0,0.0,0.0
11:13:00.805, 2.0241210937500003,1.26806640625,9.11572265625,1.8087890625,-0.18662109375000002,9.46982421875,0.0,0.79345703125,-13.427734375,0.0,0.0,0.0
11:13:00.916, 2.8663085937500004,1.79921875,9.742578125000001,1.8279296875000002,-0.25361328125000004,9.75693359375,3.90625,5.55419921875,-7.8125,0.244140625,0.06103515625,-0.1220703125
11:13:01.028, 1.8279296875000002,1.77529296875,9.364550781250001,1.7609375,-0.32539062500000004,9.53681640625,2.86865234375,3.35693359375,-0.06103515625,0.1220703125,-0.06103515625,0.06103515625
11:13:01.139, 2.4069335937500003,1.6460937500000001,9.479394531250001,2.0528320312500004,-0.11962890625000001,9.240136718750001,-4.21142578125,1.8310546875,8.4228515625,-0.18310546875,-0.30517578125,-0.06103515625
11:13:01.251, 2.32080078125,1.31591796875,9.6564453125,1.82314453125,-0.19140625,9.819140625000001,-9.46044921875,9.46044921875,6.65283203125,0.0,-0.18310546875,-0.06103515625
11:13:01.362, 1.378125,1.03359375,10.048828125,1.8614257812500001,-0.25361328125000004,9.503320312500001,-0.54931640625,8.9111328125,8.1787109375,-0.06103515625,0.1220703125,0.0
11:13:01.474, 2.4595703125000004,0.6077148437500001,8.43623046875,2.0049804687500004,-0.26796875000000003,9.6181640625,-2.0751953125,-1.03759765625,7.080078125,0.42724609375,-0.1220703125,-0.06103515625
11:13:01.584, 1.6843750000000002,0.33974609375000003,10.07275390625,1.8279296875000002,-0.12919921875,9.704296875,-0.67138671875,2.9296875,-4.8828125,0.244140625,0.1220703125,0.0
11:13:01.696, 2.0001953125000003,0.7273437500000001,8.838183593750001,1.88056640625,-0.22968750000000002,9.59423828125,0.3662109375,-2.50244140625,-15.7470703125,-0.1220703125,0.0,-0.1220703125
11:13:01.808, 2.2298828125,1.6939453125000001,9.532031250000001,1.9092773437500001,-0.22968750000000002,9.651660156250001,9.46044921875,7.4462890625,-7.87353515625,0.1220703125,-0.1220703125,0.06103515625
11:13:01.920, 1.665234375,1.9571289062500001,9.699511718750001,1.8901367187500002,-0.21054687500000002,9.54638671875,6.16455078125,8.11767578125,15.0146484375,0.0,0.06103515625,-0.18310546875
11:13:02.030, 1.29677734375,1.06708984375,10.058398437500001,1.88056640625,-0.21054687500000002,9.60859375,-1.8310546875,-3.11279296875,16.845703125,0.06103515625,0.0,0.06103515625
11:13:02.141, 1.5599609375,0.8469726562500001,9.694726562500001,1.9236328125000002,-0.22490234375,9.646875000000001,-6.8359375,-12.75634765625,7.6904296875,0.06103515625,0.0,0.06103515625
11:13:02.253, 2.7897460937500003,0.7512695312500001,9.005664062500001,1.8853515625000001,-0.28232421875,9.59423828125,-7.01904296875,-13.00048828125,0.42724609375,0.244140625,-0.06103515625,-0.06103515625
11:13:02.365, 2.47392578125,0.052636718750000006,9.46982421875,2.4787109375000003,0.49287109375000004,11.345605468750001,0.48828125,0.79345703125,1.5869140625,0.8544921875,-0.244140625,-0.54931640625
11:13:02.476, 1.8279296875000002,0.52158203125,9.80478515625,2.04326171875,-0.33017578125,9.838281250000001,1.89208984375,-0.3662109375,-14.892578125,-0.48828125,-0.8544921875,0.244140625
11:13:02.587, 2.1341796875,1.2919921875,9.2353515625,1.8518554687500002,-0.248828125,9.814355468750001,10.07080078125,-0.06103515625,-18.310546875,-0.06103515625,0.244140625,0.0
11:13:02.698, 2.1437500000000003,1.68916015625,9.63251953125,1.8853515625000001,-0.248828125,9.603808593750001,-0.91552734375,-3.5400390625,-15.80810546875,0.06103515625,0.42724609375,0.0
11:13:02.809, 2.1341796875,1.4259765625,9.364550781250001,1.88056640625,-0.19140625,9.68037109375,-15.19775390625,-3.5400390625,-19.83642578125,0.06103515625,0.0,0.1220703125
11:13:02.920, 2.0480468750000003,1.473828125,9.335839843750001,1.8853515625000001,-0.248828125,9.6373046875,-0.9765625,2.197265625,-10.68115234375,0.0,0.0,-0.06103515625
11:13:03.032, 2.10546875,1.33984375,9.44111328125,1.9140625000000002,-0.2201171875,9.60859375,1.46484375,-3.5400390625,9.521484375,0.0,0.0,0.06103515625
11:13:03.142, 2.2490234375,1.1962890625,9.4267578125,1.9044921875,-0.19140625,9.6181640625,-0.244140625,0.732421875,7.14111328125,0.18310546875,0.06103515625,-0.06103515625
11:13:03.254, 2.04326171875,0.9666015625000001,9.45068359375,1.8614257812500001,-0.172265625,9.599023437500001,-3.11279296875,1.46484375,9.33837890625,0.1220703125,0.06103515625,0.0
11:13:03.365, 2.1724609375000004,0.9187500000000001,9.42197265625,1.9092773437500001,-0.248828125,9.627734375000001,-1.15966796875,1.28173828125,2.3193359375,0.0,-0.06103515625,-0.18310546875
11:13:03.477, 2.0958984375000003,1.06708984375,9.2544921875,1.8757812500000002,-0.23447265625000002,9.651660156250001,-2.50244140625,-2.74658203125,6.2255859375,0.1220703125,-0.06103515625,0.0
11:13:03.587, 1.7417968750000001,0.9474609375,9.589453125,1.8853515625000001,-0.2009765625,9.6181640625,-2.86865234375,12.0849609375,6.28662109375,0.0,0.0,0.0
11:13:03.698, 1.8901367187500002,0.6986328125000001,9.666015625,1.8997070312500002,-0.19619140625,9.6181640625,-5.79833984375,-4.57763671875,5.0048828125,0.0,0.0,0.0
11:13:03.810, 2.28251953125,0.44501953125000004,9.364550781250001,1.8997070312500002,-0.23447265625000002,9.622949218750001,0.06103515625,2.5634765625,-0.244140625,0.0,0.0,0.0
11:13:03.921, 1.8997070312500002,0.9139648437500001,9.484179687500001,1.91884765625,-0.22490234375,9.646875000000001,5.92041015625,16.6015625,-0.18310546875,0.0,0.0,0.0
11:13:04.032, 1.6987304687500002,0.7512695312500001,9.70908203125,1.9092773437500001,-0.16748046875,9.622949218750001,5.06591796875,5.18798828125,-7.38525390625,0.0,0.0,0.0
11:13:04.144, 1.4833984375,3.19169921875,10.02490234375,1.894921875,-0.19619140625,9.64208984375,6.04248046875,1.8310546875,-7.14111328125,0.0,0.0,0.0
11:13:04.255, 1.7465820312500002,1.512109375,9.99140625,1.87099609375,-0.24404296875,9.622949218750001,4.39453125,1.953125,-6.34765625,0.0,0.0,0.0
11:13:04.367, 1.6269531250000002,1.10537109375,9.091796875,1.9092773437500001,-0.21054687500000002,9.63251953125,-2.13623046875,0.9765625,-6.89697265625,0.0,0.0,0.0
11:13:04.479, 0.8613281250000001,1.20107421875,9.99619140625,1.8757812500000002,-0.17705078125,9.651660156250001,-3.5400390625,-0.48828125,-0.244140625,0.0,0.0,0.0
11:13:04.589, 1.1580078125000002,0.8948242187500001,9.76171875,1.894921875,-0.23447265625000002,9.60859375,6.9580078125,-3.11279296875,-3.84521484375,0.0,-0.1220703125,0.0
11:13:04.701, 1.5647460937500002,1.378125,9.5607421875,1.8901367187500002,-0.22490234375,9.627734375000001,1.40380859375,-16.845703125,-1.64794921875,0.0,0.0,0.06103515625
11:13:04.813, 1.9092773437500001,0.9618164062500001,9.92919921875,1.8853515625000001,-0.17705078125,9.63251953125,-6.2255859375,-27.40478515625,0.9765625,0.1220703125,-0.06103515625,-0.06103515625
11:13:04.924, 2.68447265625,1.0383789062500002,9.02001953125,1.894921875,-0.19140625,9.6181640625,0.42724609375,-20.93505859375,10.31494140625,0.0,0.06103515625,-0.06103515625
11:13:05.035, 2.4117187500000004,1.2919921875,9.766503906250001,1.8614257812500001,-0.23925781250000003,9.6181640625,5.55419921875,-14.34326171875,11.90185546875,0.0,0.0,0.0
11:13:05.146, 2.469140625,0.9570312500000001,9.206640625,1.87099609375,-0.23925781250000003,9.651660156250001,0.3662109375,-16.41845703125,10.80322265625,0.06103515625,0.0,-0.06103515625
11:13:05.257, 4.679882812500001,0.9953125,8.22568359375,1.8853515625000001,-0.17705078125,9.6181640625,-1.64794921875,-1.89208984375,5.2490234375,0.0,0.0,0.0
11:13:05.368, 2.9189453125,0.9953125,9.30712890625,1.88056640625,-0.2201171875,9.6181640625,-2.50244140625,-7.568359375,3.72314453125,0.06103515625,0.0,-0.06103515625
11:13:05.479, 3.8472656250000004,0.34453125,8.4123046875,1.8997070312500002,-0.21533203125000003,9.646875000000001,0.30517578125,-5.9814453125,4.57763671875,0.0,0.0,0.0
11:13:05.589, 3.98125,0.40673828125000006,8.814257812500001,1.9044921875,-0.19140625,9.589453125,0.30517578125,3.173828125,0.48828125,0.0,0.0,0.0
11:13:05.701, 3.7419921875,0.765625,9.11572265625,1.8757812500000002,-0.19140625,9.60859375,-0.30517578125,4.08935546875,-0.18310546875,0.0,0.0,0.0
11:13:05.813, 3.1725585937500003,0.50244140625,9.32626953125,1.8853515625000001,-0.23925781250000003,9.60859375,2.0751953125,1.03759765625,-1.220703125,0.0,0.0,0.0
11:13:05.924, 3.4213867187500004,0.45458984375000006,8.742480468750001,1.894921875,-0.20576171875000002,9.6181640625,1.46484375,7.32421875,-9.27734375,0.0,0.0,0.0
11:13:06.036, 3.2251953125000004,1.15322265625,9.5703125,1.88056640625,-0.2583984375,9.59423828125,4.7607421875,6.16455078125,-13.7939453125,0.244140625,0.42724609375,0.0
11:13:06.148, 3.52666015625,1.26806640625,9.1875,1.9044921875,-0.26318359375,9.646875000000001,0.42724609375,16.17431640625,-9.21630859375,0.18310546875,0.06103515625,0.0
11:13:06.259, 2.928515625,1.4211914062500002,9.75693359375,1.8518554687500002,-0.19619140625,9.579882812500001,-7.32421875,8.9111328125,-13.5498046875,0.0,0.06103515625,0.06103515625
11:13:06.371, 2.296875,0.8326171875,9.264062500000001,1.87099609375,-0.19619140625,9.6564453125,0.9765625,6.7138671875,0.91552734375,0.0,-0.18310546875,0.0
11:13:06.483, 2.27294921875,0.669921875,9.412402343750001,1.990625,-0.26318359375,9.68037109375,4.08935546875,4.39453125,2.25830078125,-0.244140625,0.06103515625,0.18310546875
11:13:06.594, 2.25380859375,1.8757812500000002,10.441210937500001,1.8757812500000002,-0.22968750000000002,9.603808593750001,2.62451171875,-8.60595703125,3.41796875,-0.06103515625,-0.06103515625,0.0
11:13:06.704, 3.6654296875,0.6747070312500001,7.8572265625,1.9332031250000001,-0.14833984375,9.68994140625,-3.0517578125,-14.09912109375,15.19775390625,0.244140625,-0.1220703125,0.06103515625
11:13:06.816, 2.52177734375,0.56943359375,9.886132812500001,1.856640625,-0.2201171875,9.61337890625,2.13623046875,11.1083984375,5.92041015625,-0.79345703125,0.244140625,0.0
11:13:06.927, 2.66533203125,0.9426757812500001,9.4650390625,1.8662109375000002,-0.153125,9.771289062500001,10.3759765625,-2.13623046875,2.8076171875,0.48828125,-0.06103515625,-0.18310546875
11:13:07.038, 2.7275390625,1.8183593750000002,9.22578125,2.75146484375,-0.23925781250000003,9.125292968750001,3.5400390625,0.6103515625,12.5732421875,0.1220703125,4.150390625,-0.06103515625
11:13:07.150, 2.68447265625,0.8613281250000001,9.49375,1.96669921875,-0.0478515625,9.532031250000001,0.79345703125,6.8359375,27.099609375,0.30517578125,0.0,-0.18310546875
11:13:07.262, 2.6031250000000004,0.43544921875000003,9.25927734375,1.8853515625000001,-0.16269531250000002,9.59423828125,1.89208984375,-0.18310546875,19.95849609375,0.0,0.0,0.18310546875
11:13:07.373, 2.8423828125000004,0.33017578125,9.35498046875,1.92841796875,-0.287109375,9.59423828125,6.591796875,-0.48828125,8.36181640625,-0.06103515625,0.0,0.06103515625
11:13:07.485, 2.6222656250000003,0.45937500000000003,9.5607421875,1.8757812500000002,-0.21054687500000002,9.627734375000001,-2.01416015625,0.79345703125,-0.48828125,-0.06103515625,0.18310546875,0.0
11:13:07.596, 2.7658203125000003,0.59814453125,9.340625000000001,1.8518554687500002,-0.1435546875,9.627734375000001,-1.15966796875,0.06103515625,-7.01904296875,-0.3662109375,0.06103515625,0.0
11:13:07.707, 2.8136718750000003,0.8852539062500001,9.51767578125,1.8279296875000002,-0.31582031250000003,9.7138671875,-1.8310546875,-1.03759765625,-9.8876953125,-0.48828125,0.732421875,0.0
11:13:07.818, 2.6892578125,1.2297851562500002,9.220996093750001,1.8901367187500002,-0.25361328125000004,9.603808593750001,-1.15966796875,0.54931640625,0.48828125,0.244140625,-0.1220703125,0.06103515625
11:13:07.930, 2.7275390625,1.05751953125,9.15400390625,1.88056640625,-0.19140625,9.646875000000001,-1.46484375,0.48828125,2.8076171875,-0.1220703125,0.0,0.0
11:13:08.041, 2.87109375,0.7943359375000001,9.575097656250001,0.9331054687500001,-1.1436523437500001,8.886035156250001,0.0,-1.77001953125,2.9296875,-1.28173828125,-3.41796875,0.1220703125
11:13:08.152, 2.71318359375,0.74169921875,9.053515625000001,0.36367187500000003,-0.37324218750000004,8.240039062500001,0.67138671875,0.732421875,-0.54931640625,4.150390625,7.99560546875,-1.03759765625
11:13:08.263, 2.6988281250000004,0.6890625,9.575097656250001,1.7657226562500001,-0.19140625,9.15400390625,1.28173828125,-0.79345703125,-3.60107421875,0.67138671875,-0.1220703125,-0.06103515625
11:13:08.375, 2.6031250000000004,0.92353515625,9.311914062500001,1.8614257812500001,-0.22968750000000002,9.508105468750001,0.48828125,-1.28173828125,-5.43212890625,0.1220703125,0.244140625,-0.1220703125
11:13:08.486, 2.9333007812500003,0.9905273437500001,9.37412109375,1.9332031250000001,-0.18183593750000002,9.723437500000001,-1.15966796875,1.0986328125,-4.45556640625,-0.06103515625,0.1220703125,-0.06103515625
11:13:08.597, 2.7179687500000003,1.1484375,9.479394531250001,1.88056640625,-0.23447265625000002,9.555957031250001,2.3193359375,-0.67138671875,0.0,0.06103515625,0.0,0.0
11:13:08.709, 2.97158203125,0.95224609375,9.144433593750001,1.9044921875,-0.22490234375,9.70908203125,-2.38037109375,1.28173828125,4.5166015625,0.06103515625,0.0,0.0
11:13:08.819, 2.6461914062500003,0.5646484375,9.436328125000001,1.8135742187500001,-0.172265625,9.6181640625,-1.46484375,-1.64794921875,2.86865234375,0.1220703125,-0.244140625,0.06103515625
11:13:08.931, 2.7897460937500003,0.74169921875,9.22578125,1.8997070312500002,-0.19140625,9.6564453125,1.89208984375,1.28173828125,-1.5869140625,-0.1220703125,0.0,0.06103515625
11:13:09.042, 2.5169921875,0.8852539062500001,9.3501953125,1.9332031250000001,-0.1435546875,9.579882812500001,2.0751953125,2.13623046875,-0.54931640625,0.0,0.0,0.0
11:13:09.154, 2.87587890625,0.82783203125,9.388476562500001,1.8901367187500002,-0.25361328125000004,9.627734375000001,-1.64794921875,0.732421875,-1.89208984375,0.0,0.0,0.30517578125
11:13:09.265, 2.45,0.9618164062500001,9.532031250000001,1.8040039062500002,-0.20576171875000002,9.6564453125,1.708984375,0.48828125,0.79345703125,0.06103515625,0.244140625,-0.06103515625
11:13:09.378, 2.7658203125000003,0.80869140625,9.240136718750001,1.88056640625,-0.19140625,9.5607421875,-0.8544921875,-0.06103515625,0.91552734375,-0.1220703125,0.0,0.06103515625
11:13:09.488, 2.7706054687500004,0.8421875000000001,9.40283203125,1.8853515625000001,-0.2201171875,9.6564453125,-1.28173828125,0.30517578125,0.91552734375,0.0,0.1220703125,0.0
11:13:09.599, 2.54091796875,0.7943359375000001,9.34541015625,1.856640625,-0.23447265625000002,9.666015625,0.42724609375,0.79345703125,1.708984375,0.06103515625,0.0,0.0
11:13:09.711, 2.61748046875,0.7177734375,9.42197265625,1.9092773437500001,-0.2009765625,9.589453125,-0.1220703125,-0.3662109375,-0.6103515625,-0.1220703125,-0.1220703125,-0.06103515625
11:13:09.821, 2.75146484375,0.76083984375,9.34541015625,1.9140625000000002,-0.23447265625000002,9.64208984375,0.1220703125,0.244140625,-4.150390625,0.0,0.0,0.0
11:13:09.932, 2.4787109375000003,1.1197265625000001,9.4267578125,1.83271484375,-0.248828125,9.646875000000001,1.220703125,0.79345703125,0.06103515625,0.0,0.0,0.0
11:13:10.044, 2.7179687500000003,0.9139648437500001,9.3693359375,1.9475585937500002,-0.172265625,9.622949218750001,-2.25830078125,0.79345703125,4.08935546875,0.0,0.0,0.0
11:13:10.155, 2.56962890625,0.7273437500000001,9.398046875,1.87099609375,-0.2009765625,9.627734375000001,-1.220703125,1.708984375,2.99072265625,0.0,0.0,0.0
11:13:10.265, 2.54091796875,0.8948242187500001,9.412402343750001,1.894921875,-0.23925781250000003,9.66123046875,0.06103515625,2.0751953125,3.0517578125,0.0,0.0,0.0
11:13:10.376, 2.6509765625000004,0.5837890625000001,9.45068359375,1.8997070312500002,-0.22968750000000002,9.627734375000001,-2.8076171875,0.67138671875,5.31005859375,0.0,0.0,0.0
11:13:10.486, 2.48828125,0.3349609375,9.45068359375,1.9092773437500001,-0.2201171875,9.60859375,-0.54931640625,0.48828125,1.708984375,0.0,0.0,0.0
11:13:10.597, 2.5504882812500003,0.6507812500000001,9.460253906250001,1.8901367187500002,-0.21533203125000003,9.6181640625,2.62451171875,-0.18310546875,-3.5400390625,0.0,0.0,0.0
11:13:10.709, 2.5791992187500004,0.7560546875,9.44111328125,1.8853515625000001,-0.19140625,9.64208984375,1.89208984375,-0.48828125,-2.99072265625,0.0,0.0,0.0
11:13:10.820, 2.4787109375000003,0.8230468750000001,9.455468750000001,1.8183593750000002,-0.19140625,9.579882812500001,0.79345703125,0.3662109375,-2.50244140625,0.0,0.0,0.0
11:13:10.931, 2.2873046875000003,0.9187500000000001,9.35498046875,1.8183593750000002,-0.19619140625,9.51767578125,1.77001953125,-0.18310546875,0.67138671875,0.0,0.0,0.0
11:13:11.043, 2.47392578125,0.7512695312500001,9.206640625,1.9619140625000002,-0.20576171875000002,9.54638671875,-0.79345703125,0.0,1.52587890625,0.06103515625,-0.8544921875,-0.06103515625
11:13:11.153, 2.8184570312500004,0.69384765625,9.407617187500001,2.06240234375,-0.19619140625,9.64208984375,-1.28173828125,0.1220703125,1.77001953125,0.0,-0.8544921875,0.1220703125
11:13:11.265, 2.64140625,0.59814453125,9.6181640625,1.9379882812500002,-0.17705078125,9.814355468750001,-0.48828125,0.9765625,-0.06103515625,0.0,-0.1220703125,-0.1220703125
11:13:11.377, 2.3734375,0.64599609375,9.579882812500001,1.88056640625,-0.19619140625,9.5703125,1.708984375,0.91552734375,0.732421875,0.06103515625,0.18310546875,0.0
11:13:11.489, 2.6270507812500004,0.6794921875000001,9.0630859375,1.9427734375,-0.2201171875,9.5703125,-0.30517578125,1.28173828125,-1.28173828125,0.0,0.06103515625,-0.06103515625
11:13:11.600, 2.4834960937500004,0.8326171875,9.60859375,1.9379882812500002,-0.21533203125000003,9.6373046875,0.6103515625,-0.30517578125,-0.91552734375,0.0,0.1220703125,0.0
11:13:11.711, 2.4021484375,0.85654296875,9.49853515625,1.9332031250000001,-0.21054687500000002,9.6181640625,0.30517578125,0.30517578125,-0.30517578125,-0.1220703125,0.0,0.0
11:13:11.821, 2.545703125,0.74169921875,9.383691406250001,1.92841796875,-0.2009765625,9.599023437500001,-0.79345703125,0.48828125,0.6103515625,-0.06103515625,-0.06103515625,0.0
11:13:11.931, 2.47392578125,0.71298828125,9.45068359375,1.9140625000000002,-0.22490234375,9.63251953125,-0.06103515625,-0.06103515625,0.48828125,0.06103515625,0.0,0.0
11:13:12.042, 2.45,0.7177734375,9.398046875,1.9140625000000002,-0.22490234375,9.599023437500001,0.0,0.244140625,0.8544921875,-0.06103515625,0.0,0.06103515625
11:13:12.154, 2.5791992187500004,0.7273437500000001,9.359765625000001,1.894921875,-0.20576171875000002,9.61337890625,0.0,0.244140625,-0.67138671875,0.0,0.1220703125,0.06103515625
11:13:12.264, 2.52177734375,0.6986328125000001,9.474609375,1.9236328125000002,-0.2009765625,9.6181640625,0.244140625,0.42724609375,-0.9765625,0.06103515625,0.06103515625,0.0
11:13:12.376, 2.5026367187500003,0.8469726562500001,9.407617187500001,1.92841796875,-0.2201171875,9.627734375000001,-0.06103515625,0.67138671875,-0.06103515625,0.0,0.0,0.0
11:13:12.487, 2.46435546875,0.7751953125000001,9.503320312500001,1.92841796875,-0.20576171875000002,9.599023437500001,0.1220703125,4.39453125,2.38037109375,0.0,0.0,0.0
11:13:12.599, 2.51220703125,0.6603515625,9.431542968750001,1.9379882812500002,-0.19619140625,9.599023437500001,-0.79345703125,-1.5869140625,1.0986328125,0.0,0.0,0.0
11:13:12.710, 2.5169921875,0.708203125,9.398046875,1.91884765625,-0.2009765625,9.599023437500001,0.6103515625,-0.54931640625,-1.15966796875,0.0,0.0,0.0
11:13:12.821, 2.4547851562500003,0.8230468750000001,9.503320312500001,1.9236328125000002,-0.22968750000000002,9.627734375000001,0.9765625,0.0,0.0,0.0,0.0,0.0
11:13:12.932, 2.46435546875,0.73212890625,9.37890625,1.91884765625,-0.2009765625,9.622949218750001,-0.79345703125,0.3662109375,0.54931640625,0.0,0.0,0.0
11:13:13.044, 2.49306640625,0.7273437500000001,9.48896484375,1.9140625000000002,-0.2201171875,9.6564453125,-0.6103515625,0.18310546875,-0.1220703125,0.0,0.0,0.0
11:13:13.154, 2.4547851562500003,0.765625,9.436328125000001,1.9236328125000002,-0.23925781250000003,9.60859375,0.42724609375,-0.48828125,0.0,0.0,0.0,0.0
11:13:13.265, 2.469140625,0.69384765625,9.412402343750001,1.9332031250000001,-0.24404296875,9.622949218750001,-0.06103515625,-0.30517578125,0.732421875,0.0,0.0,0.0
11:13:13.377, 2.45,0.6412109375,9.484179687500001,1.9427734375,-0.19140625,9.603808593750001,-0.48828125,-0.18310546875,0.244140625,0.0,0.0,0.0
11:13:13.489, 2.42607421875,0.6555664062500001,9.40283203125,2.15810546875,-0.1244140625,9.5607421875,0.6103515625,0.18310546875,-1.40380859375,-1.15966796875,-0.67138671875,0.1220703125
11:13:13.599, 2.8232421875,0.8708984375000001,9.27841796875,2.2442382812500004,-0.21533203125000003,9.479394531250001,0.42724609375,-0.91552734375,0.0,-0.244140625,-0.244140625,0.0
11:13:13.710, 2.9333007812500003,0.6986328125000001,9.2353515625,2.3638671875000004,-0.22490234375,9.51767578125,-0.91552734375,0.79345703125,1.953125,-0.30517578125,-0.30517578125,0.0
11:13:13.821, 2.8806640625,0.5646484375,9.46982421875,2.3877929687500004,-0.2583984375,9.51767578125,-1.46484375,0.54931640625,2.13623046875,0.0,-0.6103515625,-0.1220703125
11:13:13.933, 2.92373046875,0.45458984375000006,9.479394531250001,2.3734375,-0.23925781250000003,9.56552734375,0.06103515625,0.54931640625,0.6103515625,0.0,-0.1220703125,0.0
11:13:14.044, 2.87587890625,0.5646484375,9.206640625,2.3638671875000004,-0.23925781250000003,9.512890625,0.79345703125,-0.67138671875,-1.77001953125,0.06103515625,0.0,-0.18310546875
11:13:14.155, 2.8806640625,0.61728515625,9.49375,2.3351562500000003,-0.23447265625000002,9.59423828125,0.8544921875,0.244140625,-2.0751953125,0.0,-0.1220703125,-0.06103515625
11:13:14.266, 2.9093750000000003,0.6890625,9.287988281250001,2.4117187500000004,-0.21054687500000002,9.532031250000001,1.3427734375,-0.8544921875,-2.25830078125,-0.06103515625,-0.1220703125,0.06103515625
11:13:14.377, 2.9572265625000003,0.6747070312500001,9.32626953125,2.42607421875,-0.21054687500000002,9.45068359375,0.48828125,1.3427734375,-1.89208984375,0.0,-0.244140625,-0.06103515625
11:13:14.488, 2.9141601562500004,0.80869140625,9.340625000000001,2.4069335937500003,-0.22968750000000002,9.579882812500001,1.0986328125,-0.54931640625,-0.30517578125,0.18310546875,0.06103515625,-0.06103515625
11:13:14.599, 2.9189453125,0.66513671875,9.398046875,2.392578125,-0.23925781250000003,9.60859375,-0.732421875,-0.06103515625,0.8544921875,0.0,0.06103515625,-0.06103515625
11:13:14.710, 2.87587890625,0.69384765625,9.32626953125,2.3877929687500004,-0.18662109375000002,9.622949218750001,0.244140625,-0.3662109375,1.03759765625,0.30517578125,0.0,-0.1220703125
11:13:14.820, 2.851953125,0.6220703125,9.292773437500001,2.3638671875000004,-0.2009765625,9.527246093750001,-0.48828125,-1.28173828125,-0.244140625,0.0,0.30517578125,-0.06103515625
11:13:14.931, 2.851953125,0.6603515625,9.460253906250001,2.32080078125,-0.28232421875,9.431542968750001,1.03759765625,-0.54931640625,-1.3427734375,0.0,0.0,0.0
11:13:15.043, 2.94765625,0.6794921875000001,9.268847656250001,2.354296875,-0.16269531250000002,9.555957031250001,0.67138671875,0.9765625,-2.3193359375,-0.06103515625,0.18310546875,0.0
11:13:15.154, 2.8136718750000003,0.7704101562500001,9.283203125,2.3447265625,-0.22968750000000002,9.484179687500001,0.30517578125,-0.9765625,-2.62451171875,-0.244140625,0.1220703125,-0.18310546875
11:13:15.264, 2.94287109375,0.9139648437500001,9.316699218750001,2.2873046875000003,-0.30625,9.46982421875,0.54931640625,0.48828125,-0.79345703125,0.0,0.30517578125,-0.18310546875
11:13:15.375, 2.8663085937500004,0.7751953125000001,9.32626953125,2.3112304687500003,-0.28232421875,9.603808593750001,-0.1220703125,0.3662109375,1.52587890625,0.1220703125,0.18310546875,-0.732421875
11:13:15.487, 2.8854492187500003,0.6316406250000001,9.484179687500001,2.3064453125,-0.2583984375,9.51767578125,-0.1220703125,0.54931640625,-2.01416015625,-0.18310546875,0.42724609375,-1.3427734375
11:13:15.598, 2.87109375,0.66513671875,9.24970703125,2.2490234375,-0.3349609375,9.460253906250001,1.28173828125,0.0,-3.90625,-0.30517578125,0.67138671875,-2.01416015625
11:13:15.709, 2.8184570312500004,0.7464843750000001,9.48896484375,2.20595703125,-0.37802734375,9.72822265625,0.732421875,0.3662109375,-4.08935546875,-0.42724609375,0.30517578125,-2.62451171875
11:13:15.821, 2.7849609375,0.7225585937500001,9.292773437500001,2.3064453125,-0.4880859375,9.44111328125,-0.30517578125,-0.9765625,-6.9580078125,-1.77001953125,1.03759765625,-4.08935546875
11:13:15.931, 2.7418945312500003,0.9474609375,9.455468750000001,2.22509765625,-0.6077148437500001,9.61337890625,0.48828125,-0.30517578125,-4.69970703125,-1.708984375,0.91552734375,-5.0048828125
11:13:16.042, 2.9093750000000003,0.6412109375,9.1875,2.22509765625,-0.5120117187500001,9.551171875000001,-2.25830078125,0.91552734375,-4.33349609375,-2.44140625,1.28173828125,-6.04248046875
11:13:16.154, 2.8232421875,0.57421875,9.455468750000001,2.1963867187500004,-0.593359375,9.6373046875,-3.0517578125,1.28173828125,-4.2724609375,-2.197265625,0.79345703125,-7.32421875
11:13:16.265, 2.6270507812500004,0.32060546875,9.5416015625,2.0958984375000003,-0.6986328125000001,9.398046875,-1.64794921875,1.03759765625,-3.173828125,-1.953125,0.8544921875,-8.7890625
11:13:16.376, 2.80888671875,0.00478515625,9.321484375,2.12939453125,-0.52158203125,9.240136718750001,-2.50244140625,0.3662109375,-12.87841796875,-1.953125,1.15966796875,-9.94873046875
11:13:16.487, 2.6988281250000004,0.2966796875,9.30234375,2.1916015625000003,-0.5790039062500001,9.838281250000001,0.48828125,0.8544921875,-21.54541015625,-2.01416015625,1.46484375,-10.25390625
11:13:16.599, 2.54091796875,1.02880859375,9.622949218750001,2.06240234375,-0.5837890625000001,9.85263671875,6.89697265625,-0.9765625,-22.76611328125,-2.3193359375,1.77001953125,-10.31494140625
11:13:16.710, 2.5313476562500004,1.1771484375,9.35498046875,2.0480468750000003,-0.6029296875000001,9.8095703125,-0.9765625,0.3662109375,-23.37646484375,-2.86865234375,2.44140625,-11.3525390625
11:13:16.822, 2.04326171875,1.7561523437500002,9.287988281250001,1.7800781250000002,-0.593359375,9.8287109375,2.50244140625,2.50244140625,-10.31494140625,-1.220703125,1.52587890625,-11.16943359375
11:13:16.933, 2.5552734375000004,0.26318359375,9.670800781250001,2.1150390625,-0.7895507812500001,8.933886718750001,-12.39013671875,-6.9580078125,-9.21630859375,-4.33349609375,2.8076171875,-11.77978515625
11:13:17.043, 2.10546875,0.26796875000000003,9.61337890625,1.6939453125000001,-0.248828125,10.149316406250001,-6.103515625,19.04296875,-15.31982421875,-0.06103515625,0.9765625,-12.63427734375
11:13:17.155, 0.6268554687500001,1.3302734375,9.412402343750001,1.5503906250000001,-1.16279296875,10.2306640625,8.48388671875,36.62109375,-19.22607421875,-1.708984375,-2.9296875,-12.0849609375
11:13:17.267, 0.06220703125,1.5886718750000002,11.120703125,1.7178710937500001,-0.80390625,9.0630859375,-4.94384765625,25.5126953125,-12.8173828125,6.591796875,-1.89208984375,-13.3056640625
11:13:17.378, 0.287109375,0.68427734375,10.66611328125,0.90439453125,-0.3923828125,9.3310546875,-31.43310546875,-8.7890625,3.60107421875,4.94384765625,1.64794921875,-14.892578125
11:13:17.489, 0.97138671875,-0.9618164062500001,8.263964843750001,2.1246093750000004,0.2201171875,9.75693359375,-13.18359375,-14.22119140625,10.1318359375,0.0,-0.8544921875,-15.07568359375
11:13:17.600, 1.0718750000000001,0.04306640625,9.938769531250001,1.856640625,-0.5072265625000001,9.675585937500001,20.93505859375,-15.68603515625,-28.86962890625,-1.8310546875,-1.40380859375,-11.23046875
11:13:17.710, 1.53603515625,1.7657226562500001,9.3501953125,1.4211914062500002,-0.1435546875,10.0009765625,31.79931640625,-19.04296875,-39.97802734375,-7.080078125,-0.67138671875,-10.986328125
11:13:17.821, 1.44033203125,2.99072265625,9.21142578125,1.9236328125000002,-0.9953125,9.29755859375,18.49365234375,-8.60595703125,-32.53173828125,-4.2724609375,-0.732421875,-13.12255859375
11:13:17.932, 1.5216796875,2.3734375,9.670800781250001,1.8135742187500001,-0.66513671875,9.59423828125,-7.62939453125,-9.521484375,-7.75146484375,-2.01416015625,-1.46484375,-11.77978515625
11:13:18.045, 1.7944335937500002,1.2537109375000002,9.551171875000001,1.8087890625,-0.3349609375,9.60859375,-28.1982421875,-11.474609375,7.87353515625,-3.0517578125,-0.91552734375,-13.5498046875
11:13:18.155, 1.7800781250000002,0.29189453125000003,9.718652343750001,2.009765625,-0.7512695312500001,9.914843750000001,-15.80810546875,-10.498046875,4.638671875,-3.96728515625,-0.9765625,-13.61083984375
11:13:18.268, 3.11513671875,0.7895507812500001,8.46015625,1.8375000000000001,-0.4498046875,9.589453125,1.40380859375,-8.36181640625,-5.92041015625,-3.7841796875,-0.9765625,-12.75634765625
11:13:18.378, 2.162890625,1.06708984375,9.21142578125,1.95234375,-0.6986328125000001,9.29755859375,-6.34765625,-1.3427734375,-9.3994140625,-3.72314453125,-0.91552734375,-13.7939453125
11:13:18.488, 2.4595703125000004,0.7369140625,9.8095703125,1.7465820312500002,-0.9570312500000001,10.25458984375,-6.2255859375,-0.18310546875,-0.1220703125,-2.685546875,-1.708984375,-13.3056640625
11:13:18.600, 2.1006835937500004,0.22968750000000002,10.3072265625,2.1341796875,-0.41152343750000003,9.077441406250001,-3.35693359375,-2.99072265625,1.953125,-1.5869140625,0.30517578125,-13.3056640625
11:13:18.710, 2.5504882812500003,-0.38759765625000003,7.225585937500001,1.8853515625000001,-0.7512695312500001,9.49853515625,-12.20703125,-8.97216796875,-15.2587890625,-6.8359375,-0.67138671875,-14.58740234375
11:13:18.822, 2.162890625,-0.6029296875000001,14.187988281250002,1.8470703125,-0.7943359375000001,9.88134765625,1.77001953125,21.3623046875,-2.99072265625,-1.40380859375,2.5634765625,-11.962890625
11:13:18.933, 1.1340820312500002,0.4498046875,8.632421875,1.8422851562500002,-0.7943359375000001,9.742578125000001,-15.80810546875,2.99072265625,-12.451171875,0.42724609375,2.01416015625,-13.48876953125
11:13:19.045, 0.8182617187500001,-0.7273437500000001,9.694726562500001,1.9236328125000002,-0.80869140625,8.981738281250001,-18.1884765625,5.55419921875,-10.25390625,-0.30517578125,0.79345703125,-13.97705078125
11:13:19.157, 1.2919921875,-0.6794921875000001,9.579882812500001,1.82314453125,-0.8517578125,9.66123046875,6.04248046875,-16.66259765625,-13.24462890625,-0.6103515625,-1.15966796875,-13.0615234375
11:13:19.268, 2.9955078125,-0.69384765625,8.62763671875,2.0958984375000003,-0.00478515625,9.83349609375,12.5732421875,-8.48388671875,-28.86962890625,-3.35693359375,-0.18310546875,-13.61083984375
11:13:19.380, 1.7178710937500001,0.8469726562500001,9.6181640625,2.296875,-1.33984375,8.670703125000001,10.31494140625,3.90625,-42.54150390625,-0.9765625,-1.0986328125,-13.36669921875
11:13:19.490, 2.1533203125,1.7083007812500002,9.795214843750001,1.8901367187500002,-0.5263671875,10.125390625000001,3.23486328125,-7.38525390625,-15.9912109375,-2.0751953125,-0.54931640625,-12.02392578125
11:13:19.602, 2.41650390625,1.36376953125,11.388671875,2.13896484375,-0.24404296875,9.933984375000001,-4.0283203125,2.99072265625,-6.591796875,-0.67138671875,0.79345703125,-15.7470703125
11:13:19.713, 1.06708984375,0.19619140625,8.77119140625,2.1341796875,-0.90439453125,9.316699218750001,-4.82177734375,-10.3759765625,-12.26806640625,-2.5634765625,-0.1220703125,-12.20703125
11:13:19.824, 2.1341796875,1.6460937500000001,11.33125,1.856640625,-0.10527343750000001,9.603808593750001,12.51220703125,6.4697265625,-17.76123046875,-2.38037109375,0.18310546875,-13.0615234375
11:13:19.934, 1.435546875,1.225,9.168359375000001,1.8901367187500002,-0.8469726562500001,9.68994140625,-3.35693359375,-5.67626953125,-20.5078125,-3.72314453125,0.79345703125,-15.5029296875
11:13:20.046, 1.6939453125000001,1.12451171875,9.66123046875,2.1150390625,-1.15322265625,9.216210937500001,-2.25830078125,-7.080078125,-23.8037109375,-2.99072265625,0.8544921875,-13.85498046875
11:13:20.158, 2.3112304687500003,0.80869140625,9.4267578125,1.9954101562500002,-0.5646484375,9.398046875,0.0,-3.7841796875,-4.5166015625,-2.9296875,-0.06103515625,-14.46533203125
11:13:20.269, 1.9140625000000002,0.9857421875000001,9.091796875,2.2298828125,-0.8326171875,9.843066406250001,-13.3056640625,-8.48388671875,-2.9296875,-2.13623046875,-0.30517578125,-15.7470703125
11:13:20.381, 2.11025390625,0.7704101562500001,9.914843750000001,2.086328125,-0.7369140625,9.68037109375,-0.8544921875,-5.55419921875,-0.6103515625,-1.3427734375,0.18310546875,-15.0146484375
11:13:20.491, 2.27294921875,0.45458984375000006,9.03916015625,2.0528320312500004,-0.5311523437500001,9.627734375000001,-4.33349609375,-5.0048828125,-6.9580078125,-3.23486328125,-0.06103515625,-15.13671875
11:13:20.602, 2.1916015625000003,0.21054687500000002,9.780859375,1.9092773437500001,-0.59814453125,9.460253906250001,-6.40869140625,0.8544921875,-21.30126953125,-3.7841796875,1.0986328125,-15.68603515625
11:13:20.713, 1.91884765625,0.7895507812500001,9.532031250000001,2.0767578125000004,-0.7560546875,9.704296875,6.7138671875,-5.31005859375,-21.8505859375,-3.60107421875,0.0,-15.2587890625
11:13:20.825, 2.44521484375,0.97138671875,9.340625000000001,2.04326171875,-0.80390625,9.527246093750001,-0.91552734375,-2.62451171875,-17.27294921875,-3.2958984375,0.732421875,-15.80810546875
11:13:20.936, 2.1246093750000004,0.7034179687500001,9.40283203125,2.18203125,-0.7034179687500001,9.70908203125,-3.7841796875,-2.86865234375,-16.4794921875,-3.47900390625,-0.8544921875,-15.869140625
11:13:21.047, 2.4547851562500003,0.90439453125,9.7330078125,2.0289062500000004,-0.8613281250000001,9.603808593750001,0.42724609375,-1.3427734375,-17.51708984375,-2.3193359375,0.244140625,-16.05224609375
11:13:21.158, 2.15810546875,0.9474609375,9.455468750000001,2.13896484375,-0.7943359375000001,9.283203125,-4.69970703125,-3.5400390625,-15.9912109375,-3.35693359375,0.79345703125,-15.56396484375
11:13:21.268, 2.44521484375,0.9426757812500001,9.398046875,2.18203125,-0.74169921875,9.240136718750001,-4.82177734375,-0.54931640625,-13.0615234375,-1.15966796875,0.732421875,-14.83154296875
11:13:21.379, 2.0289062500000004,1.0240234375000001,9.75693359375,2.1006835937500004,-0.56943359375,9.54638671875,-2.0751953125,-0.54931640625,-11.90185546875,-2.3193359375,0.3662109375,-14.22119140625
11:13:21.490, 2.41650390625,0.8517578125,9.34541015625,2.0958984375000003,-0.59814453125,9.699511718750001,-4.94384765625,-1.5869140625,-14.404296875,-2.01416015625,0.6103515625,-13.73291015625
11:13:21.601, 1.97626953125,1.0144531250000002,9.627734375000001,2.1724609375000004,-0.6555664062500001,9.51767578125,-2.74658203125,-1.220703125,-8.60595703125,-0.6103515625,-0.18310546875,-11.962890625
11:13:21.713, 2.63662109375,0.8708984375000001,9.407617187500001,2.0719726562500003,-0.23925781250000003,9.771289062500001,-4.33349609375,2.50244140625,-11.04736328125,-1.40380859375,0.244140625,-10.68115234375
11:13:21.824, 1.7657226562500001,0.8182617187500001,9.6181640625,2.2203125000000004,-0.39716796875000004,9.479394531250001,-0.67138671875,-4.39453125,-14.2822265625,-0.732421875,0.732421875,-9.21630859375
11:13:21.934, 2.3877929687500004,1.0814453125,8.97216796875,2.10546875,-0.16748046875,9.5607421875,0.8544921875,-0.244140625,-19.95849609375,-0.8544921875,0.18310546875,-7.9345703125
11:13:22.046, 2.06240234375,1.6987304687500002,10.0201171875,2.2155273437500003,-0.06699218750000001,9.68994140625,2.99072265625,-1.03759765625,-14.22119140625,-1.0986328125,0.0,-6.2255859375
11:13:22.157, 2.3830078125000003,1.8470703125,8.99609375,2.0480468750000003,-0.5072265625000001,9.551171875000001,-2.50244140625,-2.62451171875,-5.79833984375,-2.3193359375,0.244140625,-5.55419921875
11:13:22.268, 2.09111328125,1.6460937500000001,9.383691406250001,2.1246093750000004,-0.057421875000000004,9.48896484375,-6.28662109375,1.3427734375,0.18310546875,-0.8544921875,0.0,-5.37109375
11:13:22.380, 2.4212890625,0.9857421875000001,8.86689453125,2.1724609375000004,-0.1435546875,9.64208984375,-10.07080078125,0.3662109375,12.51220703125,0.0,-0.18310546875,-4.8828125
11:13:22.491, 2.0528320312500004,0.29189453125000003,10.316796875000001,2.1150390625,-0.40673828125000006,9.4650390625,-2.0751953125,0.18310546875,6.77490234375,-0.91552734375,0.244140625,-4.45556640625
11:13:22.602, 2.1533203125,0.1435546875,9.13486328125,2.1437500000000003,-0.09091796875000001,9.795214843750001,-3.662109375,-4.82177734375,-7.50732421875,0.30517578125,-0.48828125,-3.84521484375
11:13:22.713, 2.2155273437500003,1.17236328125,9.455468750000001,2.18681640625,-0.28232421875,9.646875000000001,1.77001953125,-4.33349609375,-13.12255859375,-0.3662109375,0.30517578125,-3.11279296875
11:13:22.826, 2.48828125,1.44033203125,9.029589843750001,2.1676757812500003,0.0861328125,9.5703125,1.64794921875,2.8076171875,-0.42724609375,0.06103515625,-0.42724609375,-2.8076171875
11:13:22.937, 2.3830078125000003,1.3589843750000001,9.747363281250001,2.1916015625000003,-0.41152343750000003,9.551171875000001,3.2958984375,-2.74658203125,4.33349609375,0.244140625,-0.42724609375,-2.01416015625
11:13:23.048, 2.5935546875,0.5359375000000001,9.120507812500001,2.32080078125,-0.095703125,9.747363281250001,-3.96728515625,0.244140625,-1.03759765625,-0.54931640625,-0.3662109375,-1.77001953125
11:13:23.159, 2.56005859375,1.06708984375,9.60859375,2.3590820312500003,-0.028710937500000002,9.61337890625,0.3662109375,1.03759765625,-4.94384765625,-0.18310546875,0.1220703125,-1.40380859375
11:13:23.270, 2.6509765625000004,1.1388671875,9.11572265625,2.1485351562500004,-0.13876953125000002,9.3501953125,2.74658203125,-0.06103515625,-3.23486328125,-1.46484375,0.3662109375,-1.220703125
11:13:23.381, 2.32080078125,1.0814453125,9.37890625,2.2203125000000004,-0.248828125,9.479394531250001,0.30517578125,-2.0751953125,-4.45556640625,-0.6103515625,-0.1220703125,-1.40380859375
11:13:23.492, 2.4547851562500003,1.21064453125,9.206640625,2.1341796875,-0.27275390625,9.666015625,2.74658203125,-2.5634765625,-1.46484375,-0.6103515625,-0.732421875,-1.220703125
11:13:23.618, 2.37822265625,0.8948242187500001,10.163671875,2.1963867187500004,-0.23447265625000002,9.197070312500001,-2.50244140625,-1.52587890625,1.03759765625,0.6103515625,1.5869140625,-1.15966796875
11:13:23.729, 2.162890625,0.97138671875,8.75205078125,2.20595703125,-0.028710937500000002,9.666015625,-3.7841796875,0.3662109375,-3.2958984375,-0.3662109375,0.244140625,-0.91552734375
11:13:23.841, 2.8041015625,0.784765625,10.18759765625,2.0719726562500003,-0.59814453125,9.42197265625,-0.06103515625,1.5869140625,-5.9814453125,0.54931640625,0.42724609375,-1.0986328125
11:13:23.952, 2.39736328125,1.2345703125,8.761621093750001,2.162890625,-0.22490234375,9.48896484375,4.5166015625,-2.50244140625,-4.82177734375,0.3662109375,0.0,-1.28173828125
11:13:24.064, 2.354296875,1.2537109375000002,10.053613281250001,2.1533203125,-0.43066406250000006,9.603808593750001,-5.43212890625,-1.953125,0.732421875,0.244140625,-0.244140625,-1.28173828125
11:13:24.174, 2.3830078125000003,1.1340820312500002,9.24970703125,2.11025390625,-0.13876953125000002,9.388476562500001,0.06103515625,-2.3193359375,1.0986328125,-0.1220703125,0.30517578125,-1.28173828125
11:13:24.284, 2.48828125,1.0048828125,9.790429687500001,2.2107421875,-0.27753906250000004,9.5416015625,-1.77001953125,1.5869140625,3.173828125,0.0,0.18310546875,-1.52587890625
11:13:24.394, 2.4021484375,0.87568359375,9.077441406250001,2.18203125,-0.153125,9.862207031250001,-2.0751953125,-1.52587890625,0.91552734375,-0.42724609375,0.18310546875,-1.64794921875
11:13:24.505, 2.25380859375,0.8230468750000001,9.766503906250001,2.0767578125000004,-0.27275390625,9.56552734375,-0.54931640625,2.44140625,3.0517578125,1.03759765625,-0.91552734375,-1.46484375
11:13:24.616, 2.4978515625,0.6986328125000001,9.780859375,2.0671875,-0.2201171875,9.3501953125,1.77001953125,-0.79345703125,-11.29150390625,-0.3662109375,0.30517578125,-1.953125
11:13:24.727, 2.3447265625,1.26806640625,9.120507812500001,2.11025390625,-0.11005859375,9.56552734375,5.06591796875,0.6103515625,-13.97705078125,-0.18310546875,0.244140625,-1.52587890625
11:13:24.838, 2.086328125,1.7178710937500001,9.68037109375,2.1246093750000004,-0.10048828125,9.7138671875,3.35693359375,-0.3662109375,-4.82177734375,0.0,-0.18310546875,-1.0986328125
11:13:24.949, 2.3447265625,1.5408203125000002,9.197070312500001,1.95234375,-0.06220703125,9.479394531250001,-3.11279296875,-0.54931640625,-2.3193359375,-0.6103515625,-0.3662109375,-0.91552734375
11:13:25.062, 2.1533203125,1.703515625,10.154101562500001,2.1006835937500004,-0.21054687500000002,9.48896484375,0.48828125,1.953125,8.6669921875,1.0986328125,-0.30517578125,-0.67138671875
11:13:25.174, 2.4404296875,1.0718750000000001,8.6611328125,1.9092773437500001,0.11962890625000001,9.407617187500001,-8.30078125,-2.685546875,6.89697265625,-0.3662109375,0.30517578125,-0.18310546875
11:13:25.285, 2.2394531250000003,1.0958007812500001,10.2306640625,2.009765625,-0.2966796875,9.551171875000001,-6.591796875,6.28662109375,6.2255859375,-0.244140625,0.732421875,-0.3662109375
11:13:25.396, 2.1341796875,1.0814453125,9.091796875,2.0193359375,0.10527343750000001,9.58466796875,-1.0986328125,-2.8076171875,9.70458984375,0.3662109375,0.732421875,-0.1220703125
11:13:25.507, 2.17724609375,0.7560546875,9.60859375,2.08154296875,-0.11484375000000001,9.383691406250001,-3.60107421875,-0.06103515625,10.25390625,-0.8544921875,0.06103515625,-0.18310546875
11:13:25.618, 2.2203125000000004,0.36845703125,10.197167968750001,1.9954101562500002,0.019140625,9.6564453125,-0.06103515625,4.08935546875,5.06591796875,0.8544921875,0.0,-0.3662109375
11:13:25.729, 2.2155273437500003,0.39716796875000004,9.29755859375,2.06240234375,-0.06220703125,9.78564453125,2.99072265625,-3.173828125,-3.23486328125,-0.1220703125,-0.3662109375,0.0
11:13:25.841, 2.0480468750000003,0.73212890625,9.484179687500001,1.990625,-0.16269531250000002,9.780859375,0.79345703125,-0.06103515625,-9.82666015625,1.3427734375,-0.18310546875,-0.3662109375
11:13:25.951, 2.1916015625000003,0.85654296875,9.0630859375,2.23466796875,0.0478515625,9.646875000000001,3.5400390625,-4.638671875,-13.00048828125,0.18310546875,-0.42724609375,-0.06103515625
11:13:26.063, 2.01455078125,1.02880859375,9.555957031250001,1.9092773437500001,-0.09091796875000001,9.603808593750001,6.16455078125,0.54931640625,-11.29150390625,-0.8544921875,0.0,-0.18310546875
11:13:26.174, 2.06240234375,1.6460937500000001,10.273730468750001,2.03369140625,-0.3541015625,9.398046875,2.5634765625,0.54931640625,-5.615234375,-1.15966796875,-0.42724609375,-0.06103515625
11:13:26.286, 2.44521484375,1.25849609375,8.9482421875,1.96669921875,-0.06699218750000001,9.49375,0.8544921875,-1.52587890625,2.3193359375,-0.42724609375,-0.1220703125,-0.18310546875
11:13:26.397, 2.0767578125000004,1.320703125,9.61337890625,1.9810546875000001,-0.028710937500000002,9.82392578125,-2.44140625,2.50244140625,0.79345703125,0.18310546875,-0.48828125,-0.3662109375
11:13:26.508, 2.2394531250000003,1.1484375,9.455468750000001,1.9332031250000001,-0.21533203125000003,9.59423828125,1.52587890625,0.3662109375,6.9580078125,0.3662109375,0.67138671875,-0.48828125
11:13:26.619, 1.7657226562500001,0.7704101562500001,9.077441406250001,1.9571289062500001,-0.06699218750000001,9.5416015625,-2.62451171875,-2.197265625,1.3427734375,1.03759765625,-0.244140625,-0.6103515625
11:13:26.730, 2.5552734375000004,0.9857421875000001,9.766503906250001,1.9714843750000002,0.0,9.340625000000001,-1.220703125,4.7607421875,-3.11279296875,0.30517578125,-0.244140625,-0.6103515625
11:13:26.842, 2.10546875,1.10537109375,8.99130859375,1.9427734375,-0.14833984375,9.603808593750001,3.0517578125,-2.25830078125,-4.82177734375,-0.48828125,1.15966796875,-0.54931640625
11:13:26.952, 1.665234375,1.44990234375,9.2544921875,1.87099609375,0.0095703125,9.340625000000001,-0.18310546875,-3.0517578125,0.18310546875,-0.30517578125,0.0,-0.3662109375
11:13:27.062, 1.9092773437500001,1.26806640625,9.5703125,2.06240234375,-0.019140625,9.56552734375,-0.91552734375,3.41796875,1.28173828125,0.8544921875,-0.244140625,-0.42724609375
11:13:27.174, 1.990625,1.2393554687500001,9.622949218750001,2.086328125,-0.13398437500000002,9.63251953125,-1.953125,-0.48828125,0.91552734375,-0.18310546875,-0.6103515625,-0.42724609375
11:13:27.284, 2.1006835937500004,1.16279296875,9.527246093750001,1.9332031250000001,-0.3349609375,9.4267578125,-1.03759765625,-1.28173828125,5.7373046875,-0.1220703125,-0.732421875,-0.244140625
11:13:27.396, 2.1006835937500004,0.9474609375,9.886132812500001,1.894921875,-0.172265625,9.484179687500001,-5.615234375,2.38037109375,6.53076171875,-1.28173828125,0.1220703125,-0.30517578125
11:13:27.508, 1.7322265625000002,0.56943359375,9.1587890625,1.87099609375,0.172265625,9.30234375,-4.69970703125,-4.45556640625,2.01416015625,-0.06103515625,-0.18310546875,-0.30517578125
11:13:27.620, 1.5982421875000001,0.9187500000000001,9.986621093750001,1.8853515625000001,-0.401953125,9.48896484375,2.0751953125,-4.8828125,1.708984375,-0.732421875,-0.8544921875,-0.3662109375
11:13:27.732, 2.4595703125000004,0.8948242187500001,9.11572265625,1.9619140625000002,-0.2009765625,9.68515625,-2.685546875,2.3193359375,-0.1220703125,-0.79345703125,-0.30517578125,-0.732421875
11:13:27.842, 1.8183593750000002,0.6316406250000001,10.106250000000001,2.0049804687500004,-0.03828125,9.838281250000001,-0.42724609375,-1.89208984375,-1.40380859375,-0.6103515625,0.18310546875,-0.8544921875
11:13:27.955, 1.6939453125000001,1.0144531250000002,9.933984375000001,1.9140625000000002,-0.095703125,9.73779296875,3.60107421875,-2.5634765625,-5.2490234375,-0.48828125,-0.06103515625,-1.220703125
11:13:28.066, 2.4308593750000003,1.1101562500000002,8.99130859375,1.8901367187500002,-0.35888671875,9.77607421875,1.15966796875,4.94384765625,4.08935546875,1.03759765625,0.06103515625,-1.5869140625
11:13:28.177, 1.5025390625000001,0.8326171875,9.599023437500001,1.88056640625,-0.08134765625000001,9.503320312500001,-5.9814453125,-3.5400390625,2.9296875,-0.67138671875,0.244140625,-1.28173828125
11:13:28.289, 2.3447265625,0.48330078125000003,9.72822265625,1.9858398437500002,-0.42587890625,9.53681640625,-0.9765625,3.173828125,-1.46484375,-1.15966796875,0.18310546875,-1.28173828125
11:13:28.401, 2.12939453125,1.0240234375000001,9.407617187500001,1.7800781250000002,-0.03828125,9.340625000000001,5.2490234375,1.40380859375,-8.85009765625,0.1220703125,0.30517578125,-1.52587890625
11:13:28.512, 1.8183593750000002,1.1005859375,9.58466796875,1.8614257812500001,-0.287109375,9.4650390625,1.15966796875,-1.77001953125,-4.82177734375,0.0,0.18310546875,-1.03759765625
11:13:28.624, 2.1916015625000003,1.2154296875000001,9.283203125,2.0241210937500003,0.0765625,9.814355468750001,2.38037109375,3.7841796875,-2.8076171875,-0.18310546875,-0.18310546875,-0.42724609375
11:13:28.735, 1.64130859375,1.1580078125000002,9.790429687500001,1.7944335937500002,-0.052636718750000006,9.838281250000001,0.8544921875,-3.84521484375,0.54931640625,0.30517578125,0.3662109375,0.244140625
11:13:28.846, 2.15810546875,1.1819335937500002,9.53681640625,1.8279296875000002,-0.014355468750000001,9.73779296875,-0.1220703125,4.39453125,-2.685546875,-0.6103515625,0.0,0.42724609375
11:13:28.958, 1.9571289062500001,1.1436523437500001,9.091796875,1.6843750000000002,-0.10048828125,9.25927734375,1.64794921875,-3.35693359375,-1.40380859375,-0.91552734375,-0.42724609375,0.1220703125
11:13:29.071, 2.23466796875,1.49775390625,9.1779296875,1.6987304687500002,0.25361328125000004,9.388476562500001,-1.40380859375,2.685546875,0.0,-0.42724609375,0.30517578125,0.42724609375
11:13:29.181, 1.4307617187500001,1.4642578125,10.06318359375,1.6508789062500002,-0.20576171875000002,9.8478515625,-1.77001953125,0.8544921875,5.126953125,-1.46484375,-0.1220703125,0.54931640625
11:13:29.293, 1.9332031250000001,1.15322265625,10.12060546875,1.7417968750000001,0.2201171875,9.532031250000001,-2.9296875,3.2958984375,9.58251953125,0.0,0.06103515625,0.30517578125
11:13:29.405, 1.7561523437500002,0.5263671875,9.220996093750001,1.6221679687500001,-0.16748046875,9.627734375000001,-3.41796875,-1.5869140625,6.2255859375,-0.91552734375,0.06103515625,0.6103515625
11:13:29.517, 1.72744140625,0.8708984375000001,9.886132812500001,1.8518554687500002,0.0095703125,9.77607421875,0.0,2.9296875,3.60107421875,0.48828125,-0.79345703125,0.244140625
11:13:29.628, 2.15810546875,0.63642578125,9.780859375,1.7705078125000002,0.03828125,9.670800781250001,1.52587890625,1.3427734375,-0.732421875,0.06103515625,0.79345703125,0.244140625
11:13:29.739, 1.7561523437500002,0.88046875,8.9673828125,1.8470703125,-0.1435546875,9.4171875,0.48828125,-0.8544921875,-9.8876953125,-0.48828125,-0.30517578125,0.244140625
11:13:29.849, 2.3112304687500003,1.512109375,10.345507812500001,1.8135742187500001,-0.06220703125,9.747363281250001,5.43212890625,2.5634765625,-9.21630859375,-0.30517578125,0.0,0.3662109375
11:13:29.960, 1.83271484375,1.4451171875000002,9.287988281250001,1.72744140625,0.153125,9.99619140625,3.96728515625,-3.60107421875,-3.23486328125,1.5869140625,0.48828125,0.06103515625
11:13:30.072, 1.83271484375,1.44990234375,9.15400390625,1.9810546875000001,-0.04306640625,10.0201171875,-1.40380859375,1.0986328125,1.5869140625,-0.30517578125,-0.30517578125,0.3662109375
11:13:30.183, 1.87099609375,1.41640625,9.8478515625,1.7322265625000002,-0.13398437500000002,9.49853515625,-1.3427734375,0.18310546875,4.33349609375,-0.9765625,0.18310546875,0.244140625
11:13:30.294, 1.473828125,1.0958007812500001,9.283203125,1.7465820312500002,-0.27753906250000004,9.412402343750001,-1.8310546875,-3.96728515625,8.1787109375,0.0,0.30517578125,0.244140625
11:13:30.404, 2.2155273437500003,0.9618164062500001,9.321484375,1.665234375,0.03828125,9.599023437500001,-3.173828125,3.96728515625,4.57763671875,0.06103515625,0.48828125,0.18310546875
11:13:30.516, 1.63173828125,0.7895507812500001,9.75693359375,2.0001953125000003,-0.10048828125,9.747363281250001,-0.42724609375,-2.3193359375,1.03759765625,0.0,-0.6103515625,0.1220703125
11:13:30.627, 1.9714843750000002,0.9905273437500001,8.766406250000001,1.9140625000000002,0.0765625,9.75693359375,2.13623046875,-1.953125,-4.638671875,-1.0986328125,-1.15966796875,0.18310546875
11:13:30.738, 2.0241210937500003,1.30634765625,10.469921875,1.7465820312500002,-0.248828125,9.68037109375,1.220703125,2.25830078125,-2.3193359375,0.06103515625,-0.42724609375,0.18310546875
11:13:30.849, 2.162890625,1.3733398437500002,9.45068359375,1.9092773437500001,0.18662109375000002,9.575097656250001,1.89208984375,4.8828125,-3.173828125,-0.30517578125,-0.67138671875,0.18310546875
11:13:30.959, 1.9140625000000002,1.0958007812500001,8.94345703125,1.7417968750000001,-0.23925781250000003,9.70908203125,-1.953125,-3.2958984375,3.96728515625,0.18310546875,-0.244140625,0.30517578125
11:13:31.070, 1.7609375,0.9953125,9.82392578125,1.91884765625,0.014355468750000001,9.6181640625,-0.48828125,-1.64794921875,2.3193359375,0.1220703125,-0.3662109375,0.06103515625
11:13:31.181, 2.09111328125,1.129296875,9.1396484375,1.8853515625000001,-0.1435546875,9.666015625,-0.18310546875,1.3427734375,0.48828125,0.1220703125,-1.0986328125,0.18310546875
11:13:31.292, 1.68916015625,0.7704101562500001,9.4650390625,1.7322265625000002,-0.2009765625,10.005761718750001,-1.220703125,-4.150390625,1.03759765625,-0.1220703125,0.18310546875,0.0
11:13:31.403, 2.3638671875000004,1.282421875,9.747363281250001,1.79921875,0.153125,9.4171875,-0.79345703125,3.84521484375,-5.615234375,-0.42724609375,0.06103515625,-0.1220703125
11:13:31.514, 1.8470703125,1.1436523437500001,8.862109375000001,1.7561523437500002,-0.15791015625000002,9.957910156250001,4.69970703125,-2.38037109375,-0.54931640625,-1.15966796875,0.244140625,0.732421875
11:13:31.625, 1.56953125,1.5216796875,9.7330078125,1.7322265625000002,-0.23447265625000002,9.32626953125,1.8310546875,-1.708984375,3.41796875,-0.6103515625,0.1220703125,-0.06103515625
11:13:31.736, 2.1437500000000003,0.9139648437500001,9.24970703125,1.6939453125000001,-0.14833984375,9.63251953125,-5.9814453125,4.82177734375,4.21142578125,0.1220703125,0.244140625,-0.1220703125
11:13:31.847, 2.27294921875,1.129296875,9.321484375,1.8040039062500002,0.028710937500000002,9.771289062500001,1.5869140625,-0.06103515625,-3.90625,0.06103515625,-0.244140625,0.06103515625
11:13:31.958, 1.54560546875,1.1915039062500001,9.7330078125,1.7944335937500002,-0.19619140625,9.49853515625,3.2958984375,-2.13623046875,0.9765625,0.244140625,0.30517578125,0.0
11:13:32.069, 2.56962890625,0.52158203125,9.718652343750001,1.8470703125,-0.18662109375000002,9.048730468750001,-1.77001953125,5.18798828125,-5.06591796875,-0.1220703125,1.3427734375,-0.42724609375
11:13:32.182, 2.3064453125,1.6078125,8.35009765625,1.63173828125,-0.0861328125,9.455468750000001,5.43212890625,0.732421875,-7.32421875,0.8544921875,0.1220703125,0.1220703125
11:13:32.292, 1.22021484375,1.6843750000000002,10.82880859375,1.8087890625,-0.5263671875,9.63251953125,8.056640625,-2.8076171875,5.79833984375,1.3427734375,-1.03759765625,-0.06103515625
11:13:32.403, 2.45,1.052734375,8.598925781250001,1.73701171875,0.26318359375,9.599023437500001,-10.8642578125,-1.46484375,6.65283203125,1.52587890625,-1.28173828125,-0.91552734375
11:13:32.515, 1.5503906250000001,0.63642578125,10.178027343750001,1.77529296875,-0.11962890625000001,9.30234375,-5.31005859375,-1.89208984375,1.15966796875,1.64794921875,1.220703125,-0.244140625
11:13:32.625, 2.1533203125,0.8948242187500001,8.96259765625,1.9140625000000002,-0.10048828125,9.579882812500001,8.85009765625,-1.28173828125,-10.92529296875,-0.3662109375,0.06103515625,-0.1220703125
11:13:32.736, 1.2919921875,1.8422851562500002,9.599023437500001,2.39736328125,-0.0095703125,8.570214843750001,4.21142578125,-4.638671875,-8.48388671875,-2.01416015625,-1.40380859375,0.18310546875
11:13:32.848, 3.1582031250000004,1.64130859375,10.656542968750001,1.41162109375,-0.033496093750000004,8.94345703125,-2.3193359375,9.1552734375,-0.1220703125,-1.220703125,-2.01416015625,0.30517578125
11:13:32.959, 1.5743164062500001,1.9810546875000001,9.2353515625,1.2393554687500001,-0.11962890625000001,10.20673828125,-4.45556640625,-4.08935546875,13.18359375,-0.18310546875,-1.220703125,-0.18310546875
11:13:33.070, 1.7896484375000001,1.6125976562500002,10.7857421875,2.03369140625,0.32539062500000004,10.130175781250001,-8.544921875,8.4228515625,25.45166015625,1.953125,0.732421875,-0.48828125
11:13:33.181, 1.49775390625,-0.0861328125,9.053515625000001,1.7944335937500002,-0.34931640625000004,9.40283203125,-18.73779296875,-1.64794921875,15.68603515625,1.15966796875,1.708984375,-0.8544921875
11:13:33.291, 1.48818359375,0.40673828125000006,9.287988281250001,1.894921875,0.019140625,9.599023437500001,11.5966796875,-2.25830078125,-8.6669921875,1.3427734375,-0.67138671875,-0.42724609375
11:13:33.402, 1.6125976562500002,1.0240234375000001,9.589453125,1.7561523437500002,0.02392578125,9.910058593750001,7.568359375,-2.44140625,-9.27734375,0.18310546875,-0.79345703125,-0.244140625
11:13:33.514, 2.17724609375,1.1771484375,10.058398437500001,1.9236328125000002,-0.052636718750000006,9.694726562500001,4.150390625,-4.150390625,-15.80810546875,-0.91552734375,0.1220703125,-0.06103515625
11:13:33.625, 1.87099609375,1.8040039062500002,9.5224609375,1.8279296875000002,-0.13398437500000002,9.484179687500001,11.23046875,6.04248046875,-2.62451171875,-1.0986328125,0.30517578125,1.0986328125
11:13:33.736, 1.990625,1.6748046875000002,9.460253906250001,1.856640625,0.15791015625000002,9.843066406250001,-5.4931640625,-3.7841796875,0.30517578125,-1.3427734375,0.06103515625,0.0
11:13:33.848, 1.7322265625000002,1.282421875,9.5416015625,1.7609375,-0.4880859375,9.49853515625,-2.197265625,-0.8544921875,9.765625,-0.6103515625,-0.6103515625,0.06103515625
11:13:33.959, 1.8901367187500002,1.3733398437500002,9.59423828125,1.8087890625,0.36845703125,9.51767578125,-6.8359375,1.28173828125,9.27734375,0.6103515625,-0.6103515625,-0.30517578125
11:13:34.069, 2.009765625,0.61728515625,10.465136718750001,1.7130859375,0.13876953125000002,9.603808593750001,-11.29150390625,0.8544921875,16.845703125,0.732421875,0.0,-0.30517578125
11:13:34.180, 1.8853515625000001,0.24404296875,9.49853515625,1.7178710937500001,-0.19140625,9.130078125,-1.77001953125,0.54931640625,3.90625,0.1220703125,1.15966796875,-0.6103515625
11:13:34.292, 1.8375000000000001,0.287109375,8.62763671875,1.8040039062500002,0.172265625,9.766503906250001,2.62451171875,-2.13623046875,-11.53564453125,-3.11279296875,-0.3662109375,-0.1220703125
11:13:34.404, 1.856640625,1.3829101562500001,10.393359375000001,1.9379882812500002,-0.1435546875,9.704296875,7.4462890625,-1.89208984375,-8.4228515625,-1.64794921875,-1.64794921875,-0.3662109375
11:13:34.515, 2.392578125,1.1819335937500002,9.125292968750001,1.9571289062500001,-0.46416015625,9.862207031250001,0.30517578125,0.54931640625,-0.8544921875,-1.46484375,-0.8544921875,-0.9765625
11:13:34.626, 1.8997070312500002,0.784765625,10.048828125,1.7322265625000002,-0.0765625,9.61337890625,-4.45556640625,4.45556640625,2.74658203125,-2.01416015625,0.1220703125,-0.91552734375
11:13:34.738, 1.8997070312500002,0.47373046875,9.2544921875,1.9714843750000002,-0.31582031250000003,9.431542968750001,0.9765625,-0.30517578125,-2.13623046875,-1.40380859375,1.28173828125,-0.18310546875
11:13:34.849, 1.8757812500000002,0.9857421875000001,9.532031250000001,2.0528320312500004,0.00478515625,9.30234375,3.96728515625,0.0,-7.2021484375,-1.220703125,0.42724609375,-0.54931640625
11:13:34.960, 1.8853515625000001,0.784765625,9.44111328125,1.8087890625,-0.5646484375,9.694726562500001,3.11279296875,-4.2724609375,-1.40380859375,0.48828125,-0.54931640625,-0.6103515625
11:13:35.071, 1.8997070312500002,1.1101562500000002,10.154101562500001,1.8422851562500002,-0.33017578125,9.40283203125,0.9765625,2.0751953125,-9.1552734375,-2.197265625,-0.79345703125,-0.244140625
11:13:35.183, 2.5313476562500004,1.473828125,8.790332031250001,1.7944335937500002,-0.14833984375,9.5416015625,5.0048828125,0.6103515625,-3.2958984375,-1.28173828125,1.28173828125,-0.30517578125
11:13:35.295, 1.6365234375000002,1.4451171875000002,9.7330078125,1.990625,-0.55029296875,9.622949218750001,-2.685546875,2.685546875,5.06591796875,-1.0986328125,1.40380859375,-0.3662109375
11:13:35.406, 1.8853515625000001,0.9378906250000001,9.029589843750001,1.9619140625000002,-0.33017578125,9.646875000000001,-6.53076171875,-0.54931640625,7.4462890625,0.06103515625,0.8544921875,-0.30517578125
11:13:35.517, 2.0241210937500003,0.88046875,9.933984375000001,1.7083007812500002,-0.11484375000000001,9.890917968750001,-2.3193359375,3.23486328125,6.8359375,-1.46484375,2.13623046875,0.48828125
11:13:35.629, 1.68916015625,0.8661132812500001,9.6373046875,1.9140625000000002,0.3828125,9.340625000000001,-2.8076171875,1.64794921875,4.39453125,2.5634765625,4.0283203125,0.48828125
11:13:35.740, 2.009765625,-0.19140625,8.474511718750001,1.703515625,-0.36845703125,10.1349609375,0.67138671875,-0.8544921875,-1.03759765625,0.91552734375,2.3193359375,0.18310546875
11:13:35.850, 1.53125,0.8469726562500001,10.316796875000001,1.7513671875,-0.02392578125,9.149218750000001,5.37109375,3.2958984375,-9.58251953125,2.50244140625,2.197265625,-0.48828125
11:13:35.961, 2.12939453125,0.95224609375,8.024707031250001,1.8614257812500001,-0.19619140625,9.321484375,3.0517578125,-2.74658203125,-9.8876953125,0.06103515625,3.11279296875,0.244140625
11:13:36.073, 1.6269531250000002,1.3685546875,10.39814453125,1.8279296875000002,-0.22968750000000002,9.68515625,3.7841796875,6.8359375,-8.6669921875,1.15966796875,2.86865234375,0.0
11:13:36.184, 2.392578125,1.2297851562500002,8.1826171875,1.665234375,0.37802734375,8.62763671875,-1.28173828125,-4.39453125,5.92041015625,3.0517578125,3.662109375,-0.1220703125
11:13:36.295, 1.5168945312500002,0.7991210937500001,9.474609375,1.44990234375,-0.09091796875000001,10.0966796875,-2.8076171875,12.5732421875,-2.38037109375,1.28173828125,2.38037109375,-0.18310546875
11:13:36.406, 0.5263671875,1.4546875000000001,9.54638671875,1.4546875000000001,-1.02880859375,10.47470703125,1.708984375,10.68115234375,-4.638671875,-1.5869140625,-4.33349609375,0.48828125
11:13:36.518, 1.129296875,1.3302734375,10.2306640625,2.22509765625,-0.2583984375,9.9052734375,-0.67138671875,-8.36181640625,2.13623046875,-2.9296875,-6.28662109375,0.67138671875
11:13:36.629, 1.0718750000000001,0.6890625,8.60849609375,-1.8135742187500001,-2.0671875,7.21123046875,-5.9814453125,11.53564453125,0.1220703125,-0.1220703125,6.34765625,2.01416015625
11:13:36.741, 1.8183593750000002,0.7464843750000001,10.28330078125,1.9236328125000002,0.12919921875,10.83837890625,-1.77001953125,-15.5029296875,0.732421875,-0.9765625,-5.126953125,0.1220703125
11:13:36.852, 2.3255859375,0.27275390625,8.881250000000001,1.1484375,-0.37802734375,9.149218750000001,-0.732421875,-11.474609375,-0.06103515625,2.5634765625,-5.55419921875,0.0
11:13:36.963, 2.4117187500000004,0.9570312500000001,9.240136718750001,1.8662109375000002,0.7034179687500001,10.45078125,3.35693359375,6.65283203125,-1.28173828125,-1.28173828125,-4.57763671875,-0.42724609375
11:13:37.074, 1.5886718750000002,1.49775390625,11.19248046875,1.82314453125,-0.3349609375,11.345605468750001,8.60595703125,-5.615234375,-10.986328125,-3.84521484375,0.1220703125,0.67138671875
11:13:37.185, 1.8422851562500002,1.9332031250000001,9.4267578125,-0.59814453125,-1.35419921875,13.77646484375,12.51220703125,-1.64794921875,-13.671875,5.79833984375,5.0048828125,-0.30517578125
11:13:37.296, 2.4595703125000004,2.4117187500000004,11.063281250000001,1.56953125,-1.7513671875,13.532421875,6.65283203125,11.474609375,-10.07080078125,-1.5869140625,5.92041015625,2.3193359375
11:13:37.407, 0.9283203125,1.95234375,9.484179687500001,2.0767578125000004,-0.82783203125,9.10615234375,-9.27734375,-4.5166015625,2.13623046875,1.0986328125,-4.57763671875,0.48828125
11:13:37.518, 1.7226562500000002,2.4069335937500003,10.4029296875,1.894921875,-0.5550781250000001,9.264062500000001,-8.60595703125,-6.16455078125,14.70947265625,3.84521484375,-4.69970703125,0.06103515625
11:13:37.629, 2.4117187500000004,2.583984375,9.675585937500001,1.41162109375,-0.22968750000000002,9.000878906250001,-29.84619140625,-6.89697265625,27.03857421875,0.79345703125,-2.38037109375,0.0
11:13:37.741, 1.15322265625,-1.6221679687500001,10.3072265625,1.8422851562500002,-0.6412109375,9.953125,-35.0341796875,13.427734375,57.861328125,6.77490234375,0.42724609375,-1.220703125
11:13:37.852, 0.87568359375,-2.7706054687500004,9.92919921875,3.3591796875,-0.0478515625,9.4171875,-0.18310546875,-2.86865234375,13.427734375,0.8544921875,0.6103515625,-0.6103515625
11:13:37.963, 1.73701171875,-1.00966796875,11.91025390625,1.4451171875000002,-0.61728515625,10.221093750000001,25.87890625,-6.7138671875,-33.8134765625,-8.056640625,0.0,-0.54931640625
11:13:38.075, 1.5216796875,2.09111328125,8.39794921875,1.44033203125,-0.1435546875,9.096582031250001,42.48046875,-3.35693359375,-62.92724609375,-5.79833984375,0.54931640625,1.3427734375
11:13:38.186, 1.22021484375,4.5650390625,9.30712890625,1.512109375,-1.0431640625,9.92919921875,22.4609375,15.93017578125,-39.73388671875,-0.3662109375,1.15966796875,0.244140625
11:13:38.297, 0.43544921875000003,3.1534179687500004,9.005664062500001,1.6125976562500002,-0.29189453125000003,9.56552734375,-32.65380859375,11.53564453125,12.39013671875,0.1220703125,-1.52587890625,-1.15966796875
11:13:38.408, 0.73212890625,0.34931640625000004,9.240136718750001,2.3734375,-0.7560546875,8.84296875,-31.43310546875,-5.43212890625,35.7666015625,7.2021484375,-3.60107421875,-0.06103515625
11:13:38.519, 1.83271484375,-0.401953125,11.044140625,1.48818359375,0.48330078125000003,10.077539062500001,-10.68115234375,-14.58740234375,26.611328125,0.48828125,-1.52587890625,-0.8544921875
11:13:38.630, 3.5984375,-1.0479492187500001,9.627734375000001,2.0289062500000004,0.052636718750000006,9.4650390625,5.859375,-22.39990234375,-12.20703125,-0.67138671875,1.15966796875,-0.54931640625
11:13:38.741, 2.2298828125,0.66513671875,9.48896484375,1.73701171875,0.21533203125000003,10.321582031250001,14.6484375,11.1083984375,-17.4560546875,-0.06103515625,-0.9765625,1.15966796875
11:13:38.851, 0.9618164062500001,2.15810546875,10.6708984375,2.01455078125,-0.2201171875,10.23544921875,9.09423828125,23.3154296875,-8.1787109375,1.5869140625,-2.62451171875,-0.18310546875
11:13:38.962, 1.512109375,0.669921875,9.83349609375,2.0958984375000003,0.057421875000000004,8.9865234375,-5.43212890625,-22.705078125,11.90185546875,-0.8544921875,0.42724609375,0.06103515625
11:13:39.075, 4.3114257812500005,0.11005859375,6.5748046875,2.11025390625,0.248828125,8.94345703125,-0.6103515625,0.0,-0.3662109375,4.2724609375,1.77001953125,-0.3662109375
11:13:39.186, 1.473828125,0.8134765625000001,9.21142578125,2.2394531250000003,0.15791015625000002,9.8478515625,2.685546875,13.916015625,1.3427734375,0.244140625,-1.3427734375,-0.06103515625
11:13:39.296, -0.00478515625,1.39248046875,10.20673828125,2.13896484375,-0.15791015625000002,10.005761718750001,9.46044921875,27.4658203125,-1.0986328125,-0.8544921875,-7.87353515625,0.1220703125
11:13:39.409, 0.24404296875,1.3302734375,9.97705078125,1.91884765625,-0.12919921875,10.58955078125,7.8125,1.5869140625,-4.2724609375,-4.45556640625,-7.8125,1.3427734375
11:13:39.521, 2.10546875,1.58388671875,10.556054687500001,2.2490234375,-0.18183593750000002,9.77607421875,1.220703125,-26.123046875,-2.38037109375,-2.86865234375,-4.57763671875,0.732421875
11:13:39.632, 1.7178710937500001,1.1819335937500002,7.7328125000000005,2.49306640625,-0.3828125,8.53193359375,-6.53076171875,-17.4560546875,0.6103515625,-2.25830078125,-5.67626953125,0.6103515625
11:13:39.742, 1.8183593750000002,1.18671875,9.23056640625,2.0384765625,-0.42587890625,9.244921875000001,-7.14111328125,-15.19775390625,3.5400390625,-1.40380859375,-5.7373046875,0.54931640625
11:13:39.854, 3.6127929687500004,0.2201171875,8.79990234375,3.1294921875000004,-0.593359375,11.5322265625,-8.85009765625,-13.671875,15.0146484375,0.3662109375,-7.4462890625,0.30517578125
11:13:39.981, 2.5983398437500003,0.76083984375,14.475097656250002,2.5026367187500003,-0.22490234375,10.130175781250001,-0.9765625,4.33349609375,1.220703125,-0.30517578125,1.3427734375,-0.3662109375
11:13:40.093, 1.6604492187500002,0.669921875,8.929101562500001,2.9859375000000004,-0.41152343750000003,10.005761718750001,-2.197265625,-19.34814453125,-2.01416015625,-1.15966796875,1.708984375,-0.244140625
11:13:40.204, 3.2682617187500003,1.2632812500000001,7.656250000000001,2.5744140625000003,-0.5311523437500001,8.9482421875,2.3193359375,1.0986328125,-3.662109375,-1.953125,0.91552734375,0.244140625
11:13:40.315, 2.3638671875000004,1.0144531250000002,9.359765625000001,2.3830078125000003,-0.41630859375,9.575097656250001,-4.08935546875,-4.21142578125,8.97216796875,-1.8310546875,-0.79345703125,-0.1220703125
11:13:40.426, 2.8854492187500003,0.516796875,9.2544921875,2.5504882812500003,-0.27275390625,9.48896484375,-6.591796875,-0.67138671875,7.99560546875,-2.9296875,-0.9765625,0.06103515625
11:13:40.537, 2.17724609375,0.41630859375,8.929101562500001,2.9189453125,-0.19140625,9.11572265625,2.5634765625,-1.3427734375,9.765625,-0.1220703125,-0.48828125,-0.06103515625
11:13:40.649, 2.30166015625,0.095703125,10.07275390625,2.7466796875000004,-0.38759765625000003,9.94833984375,-1.40380859375,-2.685546875,9.765625,0.91552734375,-2.5634765625,-0.3662109375
11:13:40.759, 2.49306640625,-0.014355468750000001,10.04404296875,2.5983398437500003,-0.16748046875,10.06796875,1.40380859375,-0.244140625,-11.3525390625,1.3427734375,-2.3193359375,-0.67138671875
11:13:40.871, 3.1103515625000004,0.5455078125,9.474609375,2.6988281250000004,-0.3541015625,9.91962890625,6.53076171875,-1.77001953125,-20.20263671875,-0.42724609375,-2.25830078125,-0.6103515625
11:13:40.982, 2.1963867187500004,1.0862304687500002,9.8765625,2.7275390625,-0.33974609375000003,8.87646484375,10.498046875,-8.85009765625,-17.39501953125,-1.5869140625,1.46484375,-0.1220703125
11:13:41.094, 3.4596679687500003,1.8997070312500002,9.08701171875,2.8136718750000003,-0.33974609375000003,8.689843750000001,2.01416015625,10.07080078125,-7.9345703125,0.0,0.244140625,-0.6103515625
11:13:41.206, 1.7083007812500002,1.6173828125,9.077441406250001,2.84716796875,-0.36367187500000003,9.5416015625,0.244140625,-7.01904296875,11.04736328125,0.244140625,-0.6103515625,-0.6103515625
11:13:41.333, 2.44521484375,0.593359375,10.431640625,2.76103515625,-0.6747070312500001,9.40283203125,-9.33837890625,4.45556640625,22.39990234375,0.67138671875,-0.79345703125,-0.6103515625
11:13:41.444, 2.3590820312500003,-0.16269531250000002,9.25927734375,2.5983398437500003,-0.23925781250000003,9.407617187500001,-10.80322265625,-1.0986328125,15.5029296875,0.1220703125,0.18310546875,-0.42724609375
11:13:41.556, 2.63662109375,0.057421875000000004,9.32626953125,2.5935546875,-0.27275390625,9.436328125000001,3.90625,-1.28173828125,-15.68603515625,0.1220703125,-0.3662109375,-0.54931640625
11:13:41.668, 2.5504882812500003,0.7991210937500001,9.292773437500001,2.71318359375,-0.7560546875,9.206640625,12.939453125,-2.38037109375,-14.7705078125,-0.79345703125,-0.48828125,-0.30517578125
11:13:41.779, 2.52177734375,1.2919921875,8.91953125,2.92373046875,-0.028710937500000002,9.11572265625,4.2724609375,-1.3427734375,-11.16943359375,1.03759765625,-0.18310546875,-0.732421875
11:13:41.890, 2.8232421875,1.18671875,10.23544921875,2.6126953125,-0.46416015625,9.503320312500001,0.06103515625,5.615234375,3.11279296875,1.220703125,0.30517578125,-0.3662109375
11:13:42.002, 2.6796875,0.6507812500000001,8.761621093750001,2.76103515625,-0.248828125,9.68994140625,-2.25830078125,-2.01416015625,8.72802734375,1.953125,0.54931640625,-0.732421875
11:13:42.113, 2.7275390625,0.19140625,8.87646484375,2.966796875,-0.1244140625,9.5607421875,-4.150390625,1.28173828125,-2.99072265625,0.732421875,0.30517578125,-0.6103515625
11:13:42.223, 2.8232421875,0.73212890625,10.101464843750001,2.8663085937500004,-0.153125,9.2353515625,4.08935546875,1.5869140625,-4.33349609375,1.708984375,0.6103515625,-0.3662109375
11:13:42.334, 2.9141601562500004,0.765625,9.292773437500001,2.63662109375,-0.20576171875000002,9.5416015625,3.0517578125,-0.732421875,-2.74658203125,1.15966796875,1.220703125,-0.244140625
11:13:42.444, 2.392578125,1.2537109375000002,8.46494140625,2.5504882812500003,-0.07177734375,9.22578125,-0.244140625,0.79345703125,-4.45556640625,0.9765625,2.13623046875,-0.1220703125
11:13:42.555, 2.6031250000000004,1.11494140625,9.244921875000001,2.4787109375000003,-0.095703125,9.96748046875,-1.28173828125,0.9765625,2.44140625,-0.9765625,-0.244140625,0.244140625
11:13:42.664, 2.1341796875,0.80869140625,9.101367187500001,2.89501953125,-0.30146484375000004,9.42197265625,-2.62451171875,-2.13623046875,2.13623046875,0.06103515625,0.6103515625,-0.244140625
11:13:42.775, 3.3591796875,0.9618164062500001,8.38837890625,2.6701171875000003,0.11962890625000001,8.8716796875,-1.03759765625,5.7373046875,4.08935546875,-0.79345703125,2.01416015625,0.0
11:13:42.886, 2.48828125,0.516796875,9.316699218750001,2.68447265625,-0.31582031250000003,8.646777343750001,-0.1220703125,2.50244140625,8.1787109375,0.3662109375,4.94384765625,-0.244140625
11:13:42.997, 3.01943359375,0.23447265625000002,9.316699218750001,2.9141601562500004,-0.22490234375,9.54638671875,-2.9296875,7.14111328125,-1.5869140625,0.91552734375,5.9814453125,-0.30517578125
11:13:43.109, 2.6892578125,0.5311523437500001,9.4458984375,2.60791015625,-0.39716796875000004,9.35498046875,6.8359375,3.2958984375,-2.01416015625,1.3427734375,5.9814453125,0.18310546875
11:13:43.219, 2.7706054687500004,0.88046875,9.32626953125,2.5744140625000003,-0.11005859375,9.551171875000001,2.0751953125,10.7421875,-10.25390625,-1.64794921875,6.103515625,0.18310546875
11:13:43.330, 1.9619140625000002,1.129296875,9.39326171875,2.33037109375,-0.5359375000000001,9.25927734375,5.31005859375,3.11279296875,-4.150390625,0.6103515625,7.99560546875,-0.1220703125
11:13:43.443, 2.1198242187500003,1.1340820312500002,9.699511718750001,2.2203125000000004,-0.095703125,9.56552734375,5.37109375,8.4228515625,0.91552734375,-0.3662109375,6.7138671875,0.1220703125
11:13:43.554, 1.31591796875,0.90439453125,8.2017578125,2.1963867187500004,-0.287109375,8.7951171875,0.42724609375,3.662109375,-3.90625,1.5869140625,3.47900390625,-0.06103515625
11:13:43.666, 1.6604492187500002,1.0958007812500001,8.94345703125,2.04326171875,-0.26318359375,8.86689453125,1.52587890625,0.06103515625,0.0,2.0751953125,0.42724609375,0.6103515625
11:13:43.777, 1.9044921875,0.9570312500000001,9.4650390625,1.8662109375000002,0.06220703125,8.747265625,0.0,-1.28173828125,1.0986328125,0.244140625,0.42724609375,-0.06103515625
11:13:43.888, 1.9427734375,0.9618164062500001,9.4267578125,2.1676757812500003,-0.19619140625,9.780859375,3.11279296875,-0.42724609375,-7.9345703125,-0.244140625,1.46484375,0.244140625
11:13:44.001, 2.1006835937500004,1.7561523437500002,9.197070312500001,2.20595703125,-0.019140625,9.220996093750001,4.94384765625,-2.62451171875,-2.38037109375,-1.8310546875,1.64794921875,0.42724609375
11:13:44.112, 1.91884765625,1.45947265625,9.335839843750001,1.8853515625000001,-0.26796875000000003,9.3693359375,-2.99072265625,0.18310546875,2.99072265625,0.79345703125,-0.6103515625,0.18310546875
11:13:44.223, 1.9379882812500002,1.15322265625,9.7521484375,1.96669921875,-0.04306640625,10.02490234375,-2.01416015625,-0.91552734375,2.8076171875,0.6103515625,-1.89208984375,0.3662109375
11:13:44.334, 2.2107421875,1.10537109375,9.503320312500001,1.7561523437500002,-0.37324218750000004,9.120507812500001,-0.42724609375,-2.25830078125,-2.50244140625,-0.1220703125,-0.8544921875,0.6103515625
11:13:44.444, 1.8518554687500002,1.5025390625000001,9.8287109375,2.0193359375,-0.31103515625,9.99140625,1.953125,-2.3193359375,5.9814453125,1.28173828125,-0.91552734375,0.9765625
11:13:44.556, 1.7944335937500002,1.3350585937500001,9.484179687500001,2.3112304687500003,0.0765625,10.66611328125,-2.44140625,-3.23486328125,8.85009765625,0.0,-0.48828125,1.03759765625
11:13:44.667, 1.990625,1.01923828125,9.838281250000001,2.1963867187500004,-0.17705078125,9.508105468750001,-3.0517578125,1.15966796875,-1.40380859375,0.30517578125,1.28173828125,0.8544921875
11:13:44.778, 2.2394531250000003,1.31591796875,8.957812500000001,2.0384765625,-0.14833984375,9.130078125,3.5400390625,1.89208984375,-3.2958984375,0.79345703125,2.5634765625,1.0986328125
11:13:44.889, 1.9954101562500002,1.4690429687500002,9.603808593750001,2.15810546875,-0.4498046875,9.704296875,-2.13623046875,1.3427734375,3.2958984375,-0.42724609375,0.9765625,1.46484375
11:13:45.000, 2.23466796875,1.22021484375,9.053515625000001,2.25380859375,0.0765625,9.292773437500001,-1.52587890625,2.25830078125,2.38037109375,-0.1220703125,1.28173828125,1.15966796875
11:13:45.111, 1.6843750000000002,1.17236328125,9.512890625,1.9858398437500002,-0.153125,8.933886718750001,0.54931640625,-0.67138671875,3.47900390625,0.732421875,0.9765625,1.03759765625
11:13:45.222, 1.9332031250000001,1.07666015625,9.843066406250001,1.6508789062500002,-0.248828125,8.809472656250001,1.46484375,0.244140625,7.8125,-0.79345703125,0.91552734375,1.708984375
11:13:45.332, 1.9619140625000002,0.6125,9.5224609375,2.04326171875,-0.34931640625000004,9.4650390625,-0.9765625,-0.8544921875,0.1220703125,1.5869140625,2.197265625,0.91552734375
11:13:45.442, 1.8757812500000002,1.244140625,8.622851562500001,1.9714843750000002,-0.0861328125,8.89560546875,6.591796875,-3.7841796875,-18.73779296875,-1.3427734375,0.9765625,0.8544921875
11:13:45.552, 2.3112304687500003,1.856640625,9.37412109375,1.6748046875000002,-0.14833984375,8.6994140625,8.7890625,3.173828125,-16.78466796875,-0.3662109375,-0.9765625,1.220703125
11:13:45.665, 2.1916015625000003,1.7896484375000001,9.58466796875,1.6700195312500001,-0.45937500000000003,8.785546875000001,-0.42724609375,-0.91552734375,2.50244140625,-0.91552734375,-1.953125,1.708984375
11:13:45.776, 2.70361328125,1.1819335937500002,8.91953125,1.41640625,-0.40673828125000006,9.771289062500001,-4.2724609375,-1.52587890625,-3.173828125,-2.13623046875,-0.48828125,1.708984375
11:13:45.887, 1.5025390625000001,1.4690429687500002,10.61826171875,2.201171875,-0.69384765625,9.508105468750001,6.16455078125,3.662109375,-2.01416015625,0.79345703125,0.732421875,1.15966796875
11:13:45.999, 2.0193359375,0.7943359375000001,8.7951171875,2.086328125,0.06699218750000001,8.646777343750001,-5.18798828125,0.1220703125,12.75634765625,0.6103515625,1.40380859375,0.3662109375
11:13:46.111, 2.162890625,0.669921875,10.3263671875,1.92841796875,-0.09091796875000001,8.7568359375,-9.09423828125,7.8125,0.54931640625,3.7841796875,1.220703125,0.18310546875
11:13:46.221, 2.0767578125000004,0.6794921875000001,9.1396484375,1.78486328125,-0.18183593750000002,8.15390625,7.6904296875,-7.9345703125,-7.62939453125,-0.9765625,2.74658203125,0.79345703125
11:13:46.333, 2.2155273437500003,2.25380859375,10.11103515625,2.1341796875,-0.440234375,10.4029296875,7.8125,12.39013671875,-13.61083984375,0.244140625,1.28173828125,0.48828125
11:13:46.443, 1.24892578125,1.6460937500000001,8.25439453125,2.277734375,-0.18662109375000002,9.94833984375,-2.9296875,-10.43701171875,7.50732421875,-1.3427734375,-1.52587890625,0.30517578125
11:13:46.554, 2.45,2.2107421875,10.991503906250001,1.8040039062500002,-0.5646484375,11.69013671875,-4.82177734375,23.4375,15.68603515625,0.91552734375,-2.74658203125,0.1220703125
11:13:46.666, 1.4929687500000002,1.35419921875,9.97705078125,2.45,-0.40673828125000006,10.197167968750001,-7.6904296875,-7.62939453125,15.44189453125,2.0751953125,-1.220703125,0.732421875
11:13:46.793, 2.56005859375,0.6747070312500001,9.05830078125,1.7083007812500002,-0.19619140625,9.45068359375,-10.25390625,7.87353515625,2.50244140625,1.5869140625,2.5634765625,-0.48828125
11:13:46.904, 1.0383789062500002,0.7751953125000001,9.316699218750001,2.0480468750000003,-0.25361328125000004,9.048730468750001,8.6669921875,-1.3427734375,2.01416015625,3.2958984375,0.67138671875,-0.18310546875
11:13:47.016, 2.0193359375,0.8326171875,8.46494140625,2.0719726562500003,-0.0478515625,9.890917968750001,13.0615234375,-12.14599609375,-2.0751953125,-0.67138671875,-1.28173828125,-0.3662109375
11:13:47.126, 1.9858398437500002,1.5982421875000001,9.9052734375,1.990625,-0.1244140625,9.886132812500001,2.9296875,1.15966796875,-11.8408203125,-2.44140625,-0.79345703125,0.79345703125
11:13:47.237, 1.9619140625000002,2.09111328125,10.02490234375,2.0767578125000004,-0.19619140625,9.838281250000001,3.2958984375,0.732421875,-1.89208984375,0.30517578125,0.244140625,-0.1220703125
11:13:47.349, 2.0480468750000003,1.6030273437500002,9.359765625000001,2.1916015625000003,-0.37802734375,9.704296875,-0.9765625,-0.1220703125,10.8642578125,-0.48828125,-0.91552734375,0.18310546875
11:13:47.460, 1.7657226562500001,1.26806640625,9.1587890625,2.0528320312500004,-0.0765625,9.61337890625,-7.32421875,0.0,10.986328125,-0.3662109375,-1.46484375,0.0
11:13:47.572, 2.3638671875000004,1.02880859375,10.412500000000001,2.01455078125,-0.2201171875,9.4458984375,-5.2490234375,7.6904296875,7.62939453125,-0.1220703125,0.0,0.18310546875
11:13:47.683, 2.3255859375,0.9283203125,9.120507812500001,2.06240234375,0.32539062500000004,9.88134765625,-0.06103515625,2.74658203125,-15.07568359375,-1.8310546875,1.03759765625,0.18310546875
11:13:47.795, 1.53603515625,1.7513671875,9.3310546875,2.1246093750000004,-0.37324218750000004,9.508105468750001,6.8359375,0.42724609375,-9.8876953125,-0.06103515625,0.48828125,0.0
11:13:47.906, 2.3112304687500003,1.8853515625000001,9.910058593750001,1.95234375,0.0765625,9.80478515625,8.056640625,0.91552734375,-0.54931640625,-0.1220703125,0.1220703125,-0.18310546875
11:13:48.017, 1.7083007812500002,1.4259765625,9.603808593750001,1.8757812500000002,-0.42109375000000004,9.091796875,-5.0048828125,0.244140625,2.62451171875,2.74658203125,1.52587890625,-0.8544921875
11:13:48.128, 1.8375000000000001,1.06708984375,9.45068359375,1.7130859375,0.0765625,9.359765625000001,0.42724609375,0.3662109375,-1.708984375,-0.06103515625,1.03759765625,-0.1220703125
11:13:48.238, 2.1150390625,1.8470703125,9.16357421875,1.9571289062500001,-0.5120117187500001,9.388476562500001,4.2724609375,0.9765625,-3.41796875,0.9765625,0.3662109375,-0.54931640625
11:13:48.349, 1.6173828125,1.7322265625000002,9.1587890625,1.8183593750000002,-0.1435546875,9.077441406250001,-2.3193359375,-6.591796875,-3.7841796875,-1.0986328125,-0.42724609375,-0.3662109375
11:13:48.461, 1.9379882812500002,1.9810546875000001,10.59912109375,1.8470703125,-0.47373046875,10.058398437500001,0.79345703125,6.16455078125,1.15966796875,-1.708984375,-1.0986328125,-0.1220703125
11:13:48.572, 1.4259765625,1.7178710937500001,9.436328125000001,1.6508789062500002,-0.35888671875,10.173242187500001,-4.08935546875,-7.2021484375,8.544921875,0.06103515625,0.0,-0.244140625
11:13:48.682, 1.8662109375000002,1.4546875000000001,9.704296875,1.6987304687500002,-0.3828125,9.3501953125,-7.8125,4.82177734375,12.0849609375,-0.30517578125,0.54931640625,-0.48828125
11:13:48.794, 1.9092773437500001,0.7177734375,9.08701171875,1.6365234375000002,-0.42587890625,9.80478515625,-4.8828125,4.2724609375,1.220703125,-0.3662109375,-0.42724609375,-0.48828125
11:13:48.905, 1.45947265625,0.9139648437500001,9.6564453125,1.6365234375000002,-0.24404296875,9.838281250000001,1.8310546875,-1.220703125,-4.94384765625,-0.06103515625,-0.244140625,-0.42724609375
11:13:49.017, 1.7800781250000002,1.282421875,9.42197265625,1.7609375,0.07177734375,9.7138671875,6.7138671875,-0.244140625,-12.51220703125,-0.48828125,0.244140625,-0.244140625
11:13:49.129, 1.7130859375,1.8040039062500002,9.622949218750001,1.6700195312500001,-0.13876953125000002,10.02490234375,2.99072265625,-2.62451171875,-5.0048828125,0.67138671875,-0.91552734375,-0.6103515625
11:13:49.240, 1.67958984375,1.9140625000000002,9.61337890625,1.6221679687500001,-0.37802734375,9.895703125,-1.8310546875,1.3427734375,1.8310546875,-0.9765625,-0.67138671875,-0.42724609375
11:13:49.351, 1.58388671875,1.512109375,9.75693359375,1.8135742187500001,-0.28232421875,9.2736328125,-3.173828125,-0.06103515625,9.58251953125,-0.54931640625,1.0986328125,0.0
11:13:49.463, 1.9427734375,0.7991210937500001,9.431542968750001,1.7130859375,-0.09091796875000001,9.340625000000001,-6.53076171875,4.7607421875,8.30078125,0.6103515625,0.30517578125,-0.42724609375
11:13:49.574, 2.0001953125000003,1.0431640625,9.9052734375,1.5551757812500002,-0.30146484375000004,9.460253906250001,2.38037109375,1.3427734375,0.6103515625,0.6103515625,0.48828125,-0.6103515625
11:13:49.685, 1.44990234375,1.0431640625,9.316699218750001,1.59345703125,-0.12919921875,9.790429687500001,1.220703125,-2.38037109375,-2.86865234375,-3.0517578125,0.54931640625,0.0
11:13:49.797, 1.45947265625,1.45947265625,9.622949218750001,0.8900390625000001,-0.45458984375000006,10.0966796875,2.62451171875,5.126953125,-7.50732421875,-1.0986328125,0.8544921875,-0.42724609375
11:13:49.908, 0.9618164062500001,1.6556640625,9.21142578125,0.90439453125,-0.22968750000000002,9.292773437500001,6.65283203125,12.75634765625,-2.8076171875,0.0,1.708984375,-0.18310546875
11:13:50.020, 0.34931640625000004,1.6125976562500002,9.575097656250001,0.82783203125,0.019140625,9.5224609375,1.0986328125,18.24951171875,0.48828125,-0.18310546875,1.28173828125,-0.54931640625
11:13:50.131, -0.49765625,1.4642578125,9.579882812500001,0.71298828125,0.13876953125000002,10.0392578125,2.01416015625,4.638671875,-0.3662109375,0.42724609375,0.79345703125,-0.48828125
11:13:50.243, -0.593359375,1.7322265625000002,10.07275390625,0.5646484375,0.0095703125,9.431542968750001,2.99072265625,7.50732421875,-0.8544921875,2.50244140625,0.06103515625,-0.244140625
11:13:50.354, -0.30625,1.44990234375,9.192285156250001,0.6986328125000001,-0.45937500000000003,9.886132812500001,-8.544921875,-6.9580078125,4.7607421875,2.25830078125,1.5869140625,-0.732421875
11:13:50.465, -0.10048828125,1.320703125,9.4650390625,1.01923828125,0.69384765625,10.087109375,0.0,1.03759765625,4.57763671875,-1.220703125,-0.30517578125,-0.18310546875
11:13:50.576, -0.019140625,1.7083007812500002,10.45556640625,0.9666015625000001,-0.08134765625000001,10.053613281250001,6.7138671875,-5.7373046875,-1.03759765625,1.03759765625,-0.30517578125,0.30517578125
11:13:50.688, 0.765625,1.8183593750000002,9.216210937500001,0.9187500000000001,0.18662109375000002,10.0201171875,6.53076171875,-9.21630859375,-6.8359375,-0.79345703125,-0.67138671875,-0.3662109375
11:13:50.799, 0.5598632812500001,2.1963867187500004,10.225878906250001,0.77998046875,-0.153125,9.70908203125,0.3662109375,-1.708984375,-12.5732421875,-0.30517578125,-0.67138671875,0.42724609375
11:13:50.910, 0.7991210937500001,1.9427734375,9.5703125,0.6555664062500001,-0.057421875000000004,9.666015625,-4.5166015625,-12.3291015625,-2.74658203125,1.03759765625,1.28173828125,0.18310546875
11:13:51.022, 0.7895507812500001,1.4307617187500001,9.48896484375,0.8948242187500001,0.21533203125000003,10.297656250000001,-11.16943359375,-3.47900390625,8.6669921875,0.06103515625,-0.1220703125,-0.8544921875
11:13:51.133, 0.7512695312500001,1.16279296875,10.21630859375,0.8134765625000001,-0.24404296875,9.90048828125,3.35693359375,-3.5400390625,2.50244140625,1.708984375,-0.67138671875,-0.1220703125
11:13:51.245, 0.7991210937500001,1.3685546875,8.89560546875,0.5598632812500001,0.06220703125,9.83349609375,5.67626953125,-7.87353515625,-2.9296875,-0.48828125,-1.5869140625,0.18310546875
11:13:51.356, 0.46416015625,1.88056640625,9.723437500000001,0.6077148437500001,-0.0861328125,9.5607421875,1.708984375,7.99560546875,-10.7421875,-1.52587890625,-1.28173828125,0.0
11:13:51.467, 1.0814453125,2.1676757812500003,9.88134765625,0.516796875,0.2009765625,9.699511718750001,2.13623046875,-5.55419921875,-1.46484375,-0.06103515625,-0.8544921875,0.0
11:13:51.579, 1.06708984375,1.8614257812500001,10.355078125,0.80869140625,-0.24404296875,10.2306640625,-10.25390625,-2.13623046875,4.0283203125,0.79345703125,0.30517578125,-0.9765625
11:13:51.691, 0.8948242187500001,1.0958007812500001,8.909960937500001,1.0479492187500001,-0.06220703125,10.058398437500001,1.0986328125,-3.60107421875,3.23486328125,0.18310546875,0.06103515625,0.06103515625
11:13:51.802, 0.82783203125,1.59345703125,9.42197265625,0.899609375,-0.18183593750000002,9.675585937500001,-1.220703125,2.86865234375,3.35693359375,0.244140625,-0.6103515625,0.06103515625
11:13:51.912, 0.92353515625,1.320703125,9.972265625,0.88046875,-0.06699218750000001,9.747363281250001,-5.859375,0.91552734375,3.47900390625,0.18310546875,-0.54931640625,-0.48828125
11:13:52.023, 1.18671875,1.56953125,9.933984375000001,0.7225585937500001,0.10527343750000001,10.1158203125,5.79833984375,1.40380859375,-0.67138671875,-0.732421875,-0.244140625,-0.1220703125
11:13:52.135, 0.9618164062500001,1.7130859375,10.034472656250001,0.7464843750000001,0.0095703125,9.56552734375,-2.01416015625,4.39453125,-2.9296875,-0.67138671875,0.30517578125,0.06103515625
11:13:52.245, 0.8326171875,1.512109375,9.34541015625,0.6890625,-0.10527343750000001,9.7138671875,0.732421875,-0.6103515625,-1.89208984375,-0.54931640625,0.06103515625,0.0
11:13:52.357, 0.7177734375,1.87099609375,9.85263671875,0.7895507812500001,-0.09091796875000001,9.910058593750001,1.52587890625,2.8076171875,-2.62451171875,0.0,-0.48828125,0.0
11:13:52.468, 0.8374023437500001,1.41162109375,9.75693359375,0.7943359375000001,-0.02392578125,9.857421875,-5.0048828125,2.25830078125,3.2958984375,0.18310546875,0.244140625,0.0
11:13:52.579, 0.7560546875,1.244140625,9.780859375,0.8374023437500001,-0.052636718750000006,9.699511718750001,-0.30517578125,1.52587890625,4.08935546875,0.0,0.06103515625,-0.1220703125
11:13:52.691, 0.7991210937500001,1.5025390625000001,9.68994140625,0.8948242187500001,-0.07177734375,9.72822265625,2.44140625,-1.64794921875,-3.41796875,-0.18310546875,-0.06103515625,-0.06103515625
11:13:52.801, 0.9809570312500001,1.72744140625,9.75693359375,1.2058593750000002,-0.13398437500000002,9.723437500000001,-1.0986328125,-2.13623046875,-1.953125,-0.06103515625,-0.1220703125,-0.1220703125
11:13:52.913, 1.3350585937500001,1.3733398437500002,9.59423828125,1.282421875,-0.0765625,9.7138671875,0.0,-8.11767578125,2.44140625,-0.18310546875,-0.244140625,0.0
11:13:53.024, 1.5791015625000002,1.44990234375,9.46982421875,1.473828125,-0.10048828125,9.64208984375,-0.732421875,0.3662109375,-0.79345703125,-0.06103515625,-0.30517578125,0.0
11:13:53.134, 1.6748046875000002,1.44033203125,9.589453125,1.5791015625000002,-0.10048828125,9.68037109375,-0.1220703125,-1.28173828125,1.0986328125,-0.06103515625,-0.48828125,0.0
11:13:53.245, 1.9571289062500001,1.3589843750000001,9.551171875000001,1.7657226562500001,-0.10048828125,9.723437500000001,-0.30517578125,-0.54931640625,0.0,0.0,-0.1220703125,-0.06103515625
11:13:53.357, 2.1341796875,1.4211914062500002,9.622949218750001,1.9810546875000001,-0.09091796875000001,9.627734375000001,0.244140625,-1.40380859375,1.40380859375,0.0,0.0,0.0
11:13:53.469, 2.10546875,1.2537109375000002,9.3310546875,1.8518554687500002,-0.10048828125,9.603808593750001,-0.54931640625,0.6103515625,-0.244140625,-0.1220703125,0.06103515625,0.0
11:13:53.579, 1.9427734375,1.3494140625000002,9.532031250000001,1.8422851562500002,-0.095703125,9.622949218750001,1.15966796875,-0.67138671875,-0.6103515625,0.0,0.0,0.0
11:13:53.691, 2.1485351562500004,1.3876953125,9.34541015625,1.9092773437500001,-0.11962890625000001,9.63251953125,-0.06103515625,0.30517578125,-0.54931640625,0.0,0.0,0.0
11:13:53.804, 2.3160156250000004,1.41162109375,9.42197265625,2.0289062500000004,-0.06220703125,9.6181640625,0.1220703125,-1.5869140625,0.54931640625,0.06103515625,-0.79345703125,0.0
11:13:53.915, 2.660546875,1.2537109375000002,9.268847656250001,2.3590820312500003,-0.13398437500000002,9.512890625,-0.48828125,0.9765625,2.685546875,-0.1220703125,-0.30517578125,0.0
11:13:54.025, 2.58876953125,1.1580078125000002,9.484179687500001,2.44521484375,-0.1244140625,9.49853515625,-1.0986328125,1.0986328125,1.64794921875,-0.30517578125,-0.30517578125,-0.18310546875
11:13:54.136, 2.60791015625,1.0718750000000001,9.44111328125,2.47392578125,-0.0861328125,9.670800781250001,-0.30517578125,-0.06103515625,-0.06103515625,-0.1220703125,0.244140625,-0.18310546875
11:13:54.247, 2.6270507812500004,1.244140625,9.2736328125,2.5313476562500004,-0.172265625,9.49853515625,2.5634765625,-1.03759765625,-2.25830078125,0.0,0.0,-0.244140625
11:13:54.358, 2.6988281250000004,1.2537109375000002,9.29755859375,2.4834960937500004,-0.16748046875,9.3693359375,0.1220703125,0.9765625,-1.46484375,-0.244140625,0.0,-0.42724609375
11:13:54.469, 2.78017578125,1.26806640625,9.2353515625,2.6701171875000003,-0.26318359375,9.6181640625,-0.244140625,-0.67138671875,0.06103515625,-0.42724609375,-0.244140625,-0.9765625
11:13:54.580, 2.9141601562500004,1.16279296875,9.316699218750001,2.7418945312500003,-0.2583984375,9.4650390625,-0.67138671875,0.6103515625,1.52587890625,-0.54931640625,-0.3662109375,-1.64794921875
11:13:54.691, 2.7275390625,1.01923828125,9.814355468750001,2.6318359375,-0.26318359375,9.503320312500001,-1.40380859375,0.06103515625,-2.13623046875,-0.8544921875,0.18310546875,-2.62451171875
11:13:54.802, 2.8998046875,0.9474609375,9.02001953125,2.82802734375,-0.2009765625,9.5703125,1.3427734375,-1.64794921875,0.18310546875,-0.91552734375,-0.18310546875,-3.47900390625
11:13:54.913, 2.8902343750000004,0.80869140625,9.532031250000001,2.79931640625,-0.41152343750000003,9.766503906250001,0.1220703125,-1.8310546875,-7.38525390625,-1.40380859375,0.06103515625,-4.7607421875
11:13:55.025, 2.87109375,1.30634765625,9.579882812500001,2.79931640625,-0.41630859375,9.704296875,5.859375,-0.244140625,-12.26806640625,-1.708984375,0.3662109375,-5.55419921875
11:13:55.138, 2.8184570312500004,1.48818359375,9.35498046875,2.7466796875000004,-0.45458984375000006,9.27841796875,1.52587890625,-2.38037109375,-5.4931640625,-1.0986328125,0.30517578125,-6.28662109375
11:13:55.250, 2.94287109375,1.02880859375,9.096582031250001,2.7227539062500004,-0.4498046875,9.39326171875,-5.06591796875,0.91552734375,-6.89697265625,-1.64794921875,0.0,-7.14111328125
11:13:55.361, 2.82802734375,1.1484375,9.37890625,2.64140625,-0.58857421875,9.503320312500001,-0.3662109375,-3.2958984375,-9.8876953125,-1.52587890625,-0.3662109375,-9.3994140625
11:13:55.472, 2.8232421875,1.1005859375,9.503320312500001,2.4212890625,-0.6077148437500001,10.1158203125,-2.01416015625,-0.48828125,-7.568359375,-3.23486328125,-0.42724609375,-10.19287109375
11:13:55.585, 2.5791992187500004,0.9809570312500001,9.694726562500001,2.6940429687500003,-0.669921875,9.61337890625,-3.96728515625,-2.38037109375,-14.34326171875,-3.23486328125,1.40380859375,-11.23046875
11:13:55.696, 2.7658203125000003,1.02880859375,8.479296875000001,2.51220703125,-0.8517578125,9.3501953125,-0.30517578125,-3.60107421875,-9.21630859375,-4.08935546875,0.1220703125,-11.962890625
11:13:55.806, 2.6701171875000003,1.0862304687500002,9.8,2.5361328125,-0.8230468750000001,9.034375,-3.11279296875,3.47900390625,-13.12255859375,-5.0048828125,1.28173828125,-14.2822265625
11:13:55.918, 2.6222656250000003,0.7512695312500001,8.92431640625,2.47392578125,-1.1388671875,9.474609375,-3.173828125,-0.732421875,0.54931640625,-2.5634765625,0.79345703125,-15.0146484375
11:13:56.028, 2.5169921875,0.43544921875000003,9.646875000000001,2.4547851562500003,-0.8900390625000001,9.603808593750001,-5.18798828125,0.1220703125,0.54931640625,-2.86865234375,0.1220703125,-15.869140625
11:13:56.139, 2.5935546875,-0.13398437500000002,9.742578125000001,2.3399414062500004,-0.9570312500000001,9.42197265625,-13.18359375,-1.0986328125,-12.51220703125,-2.9296875,0.54931640625,-17.63916015625
11:13:56.251, 2.80888671875,0.19619140625,9.5224609375,2.56962890625,-1.1197265625000001,9.627734375000001,2.99072265625,-1.64794921875,-13.12255859375,-1.3427734375,1.15966796875,-19.4091796875
11:13:56.362, 1.59345703125,0.30625,8.7951171875,2.3830078125000003,-0.80869140625,9.20185546875,-3.35693359375,-2.44140625,-35.33935546875,-6.7138671875,1.708984375,-19.4091796875
11:13:56.472, 3.14384765625,0.76083984375,9.88134765625,2.2107421875,-0.9283203125,9.60859375,0.1220703125,-1.52587890625,-37.7197265625,-5.0048828125,0.06103515625,-20.69091796875
11:13:56.584, 1.82314453125,0.8421875000000001,9.321484375,2.18681640625,-1.2154296875000001,9.54638671875,14.16015625,-5.859375,-33.50830078125,-5.06591796875,1.28173828125,-20.81298828125
11:13:56.695, 2.3399414062500004,1.3733398437500002,9.58466796875,1.7944335937500002,-1.12451171875,9.479394531250001,0.42724609375,-6.04248046875,-27.587890625,-5.126953125,0.79345703125,-21.728515625
11:13:56.807, 2.18203125,0.9809570312500001,9.7330078125,2.2681640625000004,-1.052734375,9.61337890625,-9.033203125,-3.11279296875,-29.4189453125,-6.103515625,0.3662109375,-22.15576171875
11:13:56.919, 2.17724609375,1.00966796875,9.6564453125,2.0767578125000004,-1.4690429687500002,9.5416015625,3.0517578125,-6.8359375,-24.35302734375,-3.90625,-0.18310546875,-22.64404296875
11:13:57.031, 2.2155273437500003,0.7369140625,8.938671875,2.3064453125,-0.02392578125,9.173144531250001,-4.21142578125,-8.1787109375,-30.45654296875,-8.9111328125,1.8310546875,-22.4609375
11:13:57.142, 1.97626953125,0.669921875,10.546484375,2.04326171875,-1.77529296875,9.216210937500001,-4.82177734375,-0.6103515625,-27.4658203125,-2.86865234375,0.30517578125,-22.39990234375
11:13:57.253, 1.8901367187500002,1.0240234375000001,9.54638671875,1.8135742187500001,-1.06708984375,9.9435546875,-9.94873046875,-7.32421875,-15.93017578125,-5.43212890625,-0.18310546875,-23.49853515625
11:13:57.365, 1.9954101562500002,0.31103515625,10.469921875,2.18203125,-2.15810546875,9.53681640625,-7.01904296875,-0.18310546875,-19.34814453125,-3.5400390625,-0.30517578125,-23.5595703125
11:13:57.476, 1.7657226562500001,0.49287109375000004,9.508105468750001,2.201171875,-0.80869140625,9.83349609375,-1.0986328125,-7.50732421875,-17.9443359375,-3.11279296875,-0.54931640625,-21.3623046875
11:13:57.587, 1.8135742187500001,0.7273437500000001,9.264062500000001,2.3112304687500003,-0.8326171875,9.66123046875,-4.7607421875,-4.7607421875,-15.68603515625,-3.11279296875,-1.03759765625,-21.6064453125
11:13:57.697, 1.6269531250000002,0.50244140625,9.747363281250001,1.8375000000000001,-0.5790039062500001,9.8095703125,-4.0283203125,-7.080078125,-23.49853515625,-6.28662109375,-2.0751953125,-20.99609375
11:13:57.807, 1.9619140625000002,2.0576171875,8.99130859375,2.27294921875,-0.9809570312500001,9.13486328125,10.6201171875,-10.07080078125,-35.15625,-5.67626953125,0.732421875,-20.44677734375
11:13:57.918, 1.7130859375,1.7130859375,8.78076171875,1.88056640625,-0.7512695312500001,9.34541015625,-13.24462890625,-9.82666015625,-18.9208984375,-4.94384765625,-0.54931640625,-20.5078125
11:13:58.030, 2.0767578125000004,1.2632812500000001,10.991503906250001,2.37822265625,-1.4690429687500002,9.35498046875,-9.033203125,-0.732421875,-9.58251953125,-6.2255859375,0.79345703125,-19.1650390625
11:13:58.142, 1.91884765625,0.669921875,8.761621093750001,1.990625,-1.0431640625,10.173242187500001,-16.05224609375,-11.474609375,-5.67626953125,-4.94384765625,0.0,-19.34814453125
11:13:58.253, 2.1006835937500004,0.13398437500000002,11.130273437500001,2.28251953125,-1.9236328125000002,9.508105468750001,-7.2021484375,1.64794921875,-4.7607421875,-1.64794921875,1.03759765625,-17.2119140625
11:13:58.364, 1.4929687500000002,0.30625,8.641992187500001,2.3160156250000004,-0.6890625,9.51767578125,-19.1650390625,-4.21142578125,-1.89208984375,-0.67138671875,0.42724609375,-17.333984375
11:13:58.475, 2.2681640625000004,-0.36367187500000003,9.80478515625,2.37822265625,-1.1915039062500001,9.359765625000001,-13.12255859375,-4.0283203125,-8.23974609375,-1.8310546875,-0.06103515625,-17.333984375
11:13:58.586, 2.6988281250000004,0.2966796875,9.292773437500001,2.3830078125000003,-0.5837890625000001,9.646875000000001,-1.3427734375,-1.8310546875,-13.97705078125,-1.15966796875,0.0,-14.6484375
11:13:58.698, 1.9954101562500002,0.5455078125,9.73779296875,2.45,-1.1388671875,9.42197265625,2.44140625,0.42724609375,-17.27294921875,-3.173828125,0.79345703125,-14.46533203125
11:13:58.808, 2.20595703125,-0.14833984375,9.49375,2.3160156250000004,-0.8948242187500001,9.4650390625,-2.74658203125,-2.0751953125,-10.19287109375,-1.708984375,0.732421875,-13.73291015625
11:13:58.918, 2.1916015625000003,0.23925781250000003,9.8095703125,2.30166015625,-0.8613281250000001,9.59423828125,1.708984375,-2.3193359375,-17.822265625,-2.62451171875,0.48828125,-12.451171875
11:13:59.030, 2.086328125,0.32060546875,9.436328125000001,2.2873046875000003,-0.7512695312500001,9.3501953125,2.9296875,-4.57763671875,-18.37158203125,-0.8544921875,0.67138671875,-12.0849609375
11:13:59.142, 2.22509765625,0.899609375,9.747363281250001,2.277734375,-0.6268554687500001,9.532031250000001,1.28173828125,-1.220703125,-23.98681640625,-2.74658203125,0.6103515625,-10.7421875
11:13:59.252, 2.1724609375000004,1.53603515625,9.5416015625,2.30166015625,-0.6316406250000001,9.46982421875,1.3427734375,-1.89208984375,-13.916015625,-2.13623046875,0.244140625,-9.82666015625
11:13:59.364, 2.2298828125,1.2058593750000002,9.2353515625,2.39736328125,-0.6986328125000001,9.49375,-3.35693359375,-2.197265625,-2.0751953125,-1.8310546875,0.3662109375,-9.6435546875
11:13:59.475, 2.28251953125,0.63642578125,9.48896484375,2.354296875,-0.47851562500000006,9.398046875,-7.8125,0.0,0.9765625,-0.91552734375,0.0,-9.70458984375
11:13:59.587, 2.0049804687500004,0.57421875,9.512890625,2.3590820312500003,-0.7512695312500001,9.51767578125,-5.859375,-2.5634765625,-1.953125,-1.28173828125,-0.9765625,-8.7890625
11:13:59.699, 2.2633789062500003,0.39716796875000004,9.910058593750001,2.3399414062500004,-0.52158203125,9.46982421875,-1.64794921875,-0.48828125,-10.92529296875,-1.46484375,0.06103515625,-8.72802734375
11:13:59.812, 2.41650390625,0.5598632812500001,9.508105468750001,2.4021484375,-0.59814453125,9.8095703125,1.46484375,-0.42724609375,-11.71875,-1.52587890625,-0.3662109375,-8.23974609375
11:13:59.923, 2.1437500000000003,0.85654296875,9.694726562500001,2.39736328125,-0.61728515625,9.704296875,2.25830078125,-1.8310546875,-11.29150390625,-1.03759765625,0.244140625,-7.38525390625
11:14:00.034, 2.23466796875,0.7512695312500001,9.11572265625,2.18203125,-0.48330078125000003,9.474609375,-1.64794921875,-3.5400390625,-9.94873046875,-0.732421875,0.0,-6.8359375
11:14:00.146, 2.3255859375,1.3015625000000002,9.8765625,2.36865234375,-0.42587890625,9.97705078125,3.2958984375,2.3193359375,-15.625,-1.0986328125,0.8544921875,-6.4697265625
11:14:00.257, 2.009765625,1.4307617187500001,9.555957031250001,2.3112304687500003,-0.37802734375,9.27841796875,3.72314453125,-2.3193359375,-5.859375,-1.15966796875,0.91552734375,-5.79833984375
11:14:00.367, 2.33037109375,1.24892578125,9.45068359375,2.392578125,-0.48330078125000003,9.436328125000001,-6.53076171875,2.62451171875,0.0,-0.9765625,0.67138671875,-5.615234375
11:14:00.479, 2.0671875,0.85654296875,9.2736328125,2.2155273437500003,-0.45458984375000006,9.2736328125,-5.06591796875,0.3662109375,2.50244140625,-0.06103515625,0.48828125,-5.0048828125
11:14:00.589, 2.1150390625,0.73212890625,9.53681640625,2.354296875,-0.3541015625,9.4650390625,-2.38037109375,0.1220703125,-0.79345703125,-0.42724609375,0.18310546875,-4.638671875
11:14:00.701, 2.17724609375,0.8852539062500001,9.412402343750001,2.296875,-0.401953125,9.61337890625,-0.732421875,-2.01416015625,-4.7607421875,-0.3662109375,0.42724609375,-4.08935546875
11:14:00.812, 2.36865234375,1.15322265625,9.6564453125,2.3830078125000003,-0.34453125,9.6564453125,0.732421875,1.28173828125,-0.67138671875,-0.42724609375,0.732421875,-3.72314453125
11:14:00.923, 2.2490234375,0.784765625,9.30234375,2.4547851562500003,-0.35888671875,9.61337890625,-4.45556640625,-2.197265625,1.03759765625,-1.52587890625,1.0986328125,-3.2958984375
11:14:01.034, 2.33037109375,0.8134765625000001,9.455468750000001,2.39736328125,-0.36845703125,9.436328125000001,-1.3427734375,3.0517578125,-1.220703125,-0.3662109375,0.3662109375,-2.74658203125
