Time, AccX1, AccY1, AccZ1, AccX2, AccY2, AccZ2, AngVelX1, AngVelY1, AngVelZ1, AngVelX2, AngVelY2, AngVelZ2
14:31:23.732, 0.0,0.0,0.0,0.0,0.0,0.0,0.3662109375,0.48828125,-0.3662109375,0.0,0.0,0.0
14:31:23.858, -1.1819335937500002,1.0479492187500001,9.5607421875,-1.63173828125,0.09091796875000001,9.603808593750001,-0.42724609375,-0.91552734375,0.0,0.0,0.0,0.0
14:31:23.968, -1.22021484375,0.9378906250000001,9.68037109375,-1.6030273437500002,0.11484375000000001,9.58466796875,-0.8544921875,-0.48828125,0.0,0.0,0.0,0.0
14:31:24.078, -1.1819335937500002,0.97138671875,9.589453125,-1.64130859375,0.09091796875000001,9.60859375,0.1220703125,0.0,-1.3427734375,0.0,0.0,0.0
14:31:24.204, -1.2154296875000001,0.9474609375,9.651660156250001,-1.63173828125,0.12919921875,9.61337890625,0.0,0.30517578125,-0.3662109375,0.0,0.0,0.0
14:31:24.314, -1.2297851562500002,0.9953125,9.58466796875,-1.6173828125,0.07177734375,9.555957031250001,0.48828125,0.244140625,-0.18310546875,0.0,0.0,0.0
14:31:24.424, -1.1915039062500001,1.00966796875,9.68515625,-1.6125976562500002,0.11962890625000001,9.603808593750001,0.1220703125,-0.732421875,0.0,0.0,0.0,0.0
14:31:24.534, -1.1962890625,1.0431640625,9.6373046875,-1.6269531250000002,0.095703125,9.5703125,0.1220703125,0.1220703125,0.0,0.0,0.0,0.0
14:31:24.644, -1.2154296875000001,0.97138671875,9.694726562500001,-1.6173828125,0.11005859375,9.6181640625,-0.18310546875,-0.48828125,0.30517578125,0.0,0.0,0.0
14:31:24.754, -1.1675781250000001,0.9809570312500001,9.64208984375,-1.6221679687500001,0.07177734375,9.51767578125,0.1220703125,-0.54931640625,0.42724609375,0.0,0.0,0.0
14:31:24.863, -1.15322265625,0.9905273437500001,9.64208984375,-1.6221679687500001,0.10048828125,9.6373046875,0.06103515625,0.18310546875,-0.1220703125,0.0,0.0,0.0
14:31:24.973, -1.1484375,0.9809570312500001,9.675585937500001,-1.6365234375000002,0.0861328125,9.56552734375,0.0,0.54931640625,-0.244140625,0.0,0.0,0.0
14:31:25.082, -1.1771484375,1.02880859375,9.627734375000001,-1.63173828125,0.0861328125,9.63251953125,0.30517578125,0.79345703125,-1.3427734375,0.0,0.0,0.0
14:31:25.192, -1.2297851562500002,0.9809570312500001,9.651660156250001,-1.58388671875,0.11005859375,9.579882812500001,0.30517578125,0.732421875,0.0,0.0,0.0,0.0
14:31:25.301, -1.22021484375,1.0048828125,9.651660156250001,-1.6508789062500002,0.08134765625000001,9.622949218750001,0.6103515625,0.0,-0.3662109375,0.0,0.0,0.0
14:31:25.411, -1.25849609375,1.07666015625,9.675585937500001,-1.5982421875000001,0.09091796875000001,9.512890625,-0.3662109375,0.67138671875,0.42724609375,0.0,0.0,0.0
14:31:25.521, -1.22021484375,0.97138671875,9.64208984375,-1.5982421875000001,0.09091796875000001,9.622949218750001,-0.3662109375,-0.6103515625,1.220703125,0.0,0.0,0.0
14:31:25.631, -1.2393554687500001,0.9905273437500001,9.5416015625,-1.5982421875000001,0.11484375000000001,9.5416015625,0.06103515625,-0.06103515625,-0.48828125,0.0,0.0,0.0
14:31:25.741, -1.2393554687500001,1.0240234375000001,9.651660156250001,-1.6365234375000002,0.12919921875,9.68994140625,0.1220703125,0.6103515625,0.1220703125,0.0,0.0,0.0
14:31:25.851, -1.2393554687500001,1.0383789062500002,9.646875000000001,-1.5791015625000002,0.11962890625000001,9.5703125,0.732421875,-0.48828125,-0.18310546875,-0.42724609375,-0.30517578125,-0.06103515625
14:31:25.961, -1.1819335937500002,1.03359375,9.60859375,-1.6365234375000002,0.06699218750000001,9.5703125,-0.06103515625,0.0,0.1220703125,0.06103515625,0.06103515625,0.0
14:31:26.071, -1.21064453125,1.052734375,9.63251953125,-1.6221679687500001,0.10048828125,9.599023437500001,0.48828125,0.67138671875,0.0,-0.30517578125,-0.06103515625,-0.06103515625
14:31:26.181, -1.29677734375,1.10537109375,9.666015625,-1.6221679687500001,0.10048828125,9.627734375000001,0.30517578125,0.3662109375,0.1220703125,0.1220703125,-0.06103515625,0.0
14:31:26.291, -1.2393554687500001,1.091015625,9.666015625,-1.6030273437500002,0.09091796875000001,9.599023437500001,0.0,-0.6103515625,0.1220703125,0.0,-0.1220703125,0.0
14:31:26.400, -1.1915039062500001,1.07666015625,9.59423828125,-1.6221679687500001,0.06220703125,9.603808593750001,0.3662109375,0.48828125,-0.48828125,0.1220703125,-0.06103515625,0.0
14:31:26.510, -1.26806640625,1.0623046875000002,9.651660156250001,-1.58388671875,0.10527343750000001,9.579882812500001,0.0,1.0986328125,0.244140625,-0.3662109375,-0.244140625,-0.06103515625
14:31:26.619, -1.24892578125,1.1005859375,9.6373046875,-1.6173828125,0.10527343750000001,9.589453125,-0.3662109375,0.48828125,-0.1220703125,0.0,0.0,0.0
14:31:26.729, -1.2872070312500001,1.0958007812500001,9.646875000000001,-1.6173828125,0.11005859375,9.603808593750001,-0.42724609375,1.220703125,0.3662109375,0.0,0.0,0.0
14:31:26.839, -1.3111328125000001,1.0623046875000002,9.651660156250001,-1.6078125,0.095703125,9.551171875000001,-0.6103515625,0.91552734375,0.42724609375,-0.06103515625,0.0,0.0
14:31:26.948, -1.3111328125000001,1.0623046875000002,9.651660156250001,-1.665234375,0.10048828125,9.555957031250001,0.06103515625,1.0986328125,0.42724609375,0.0,0.0,0.0
14:31:27.059, -1.34462890625,1.0718750000000001,9.742578125000001,-1.6556640625,0.057421875000000004,9.5224609375,-0.06103515625,1.708984375,0.0,0.0,0.0,0.0
14:31:27.169, -1.3685546875,1.01923828125,9.5416015625,-1.6173828125,0.11005859375,9.599023437500001,0.42724609375,0.79345703125,0.1220703125,0.0,0.0,0.0
14:31:27.279, -1.3589843750000001,1.02880859375,9.599023437500001,-1.67958984375,0.13876953125000002,9.599023437500001,-0.244140625,1.0986328125,0.0,0.18310546875,-0.06103515625,0.0
14:31:27.388, -1.40205078125,1.0479492187500001,9.60859375,-1.6365234375000002,0.14833984375,9.8095703125,0.3662109375,1.64794921875,-0.54931640625,0.6103515625,0.0,0.0
14:31:27.497, -1.40205078125,1.05751953125,9.666015625,-1.6269531250000002,0.095703125,9.68994140625,0.06103515625,-0.732421875,0.3662109375,-0.3662109375,-0.3662109375,0.0
14:31:27.608, -1.4451171875000002,1.0814453125,9.742578125000001,-1.6221679687500001,0.08134765625000001,9.579882812500001,-0.67138671875,2.25830078125,0.9765625,0.0,-0.1220703125,0.0
14:31:27.717, -1.4833984375,1.0383789062500002,9.780859375,-1.5791015625000002,0.08134765625000001,9.5607421875,-0.6103515625,0.30517578125,1.03759765625,0.0,0.0,0.0
14:31:27.827, -1.4259765625,1.05751953125,9.603808593750001,-1.6556640625,0.095703125,9.60859375,0.3662109375,-0.6103515625,-0.06103515625,0.244140625,0.244140625,0.0
14:31:27.937, -1.39248046875,1.052734375,9.484179687500001,-1.6173828125,0.11005859375,9.622949218750001,0.67138671875,0.244140625,0.244140625,0.0,0.0,0.0
14:31:28.047, -1.435546875,1.0623046875000002,9.6564453125,-1.59345703125,0.153125,9.59423828125,0.30517578125,1.15966796875,0.54931640625,0.1220703125,0.0,0.06103515625
14:31:28.157, -1.44033203125,1.07666015625,9.527246093750001,-1.6508789062500002,0.095703125,9.58466796875,1.40380859375,0.67138671875,-0.67138671875,0.0,-0.06103515625,0.0
14:31:28.266, -1.44033203125,1.1580078125000002,9.63251953125,-1.6173828125,0.0861328125,9.60859375,0.48828125,0.30517578125,-0.30517578125,0.06103515625,0.0,0.0
14:31:28.376, -1.44990234375,1.11494140625,9.603808593750001,-1.5982421875000001,0.10527343750000001,9.575097656250001,-0.54931640625,-0.244140625,0.732421875,-0.18310546875,0.0,-0.1220703125
14:31:28.485, -1.4211914062500002,1.06708984375,9.512890625,-1.6556640625,0.095703125,9.589453125,0.0,0.1220703125,-0.30517578125,0.18310546875,0.0,0.0
14:31:28.596, -1.5168945312500002,1.1197265625000001,9.599023437500001,-1.5599609375,0.11962890625000001,9.575097656250001,1.03759765625,1.220703125,-0.42724609375,0.0,0.0,0.0
14:31:28.705, -1.4546875000000001,1.1484375,9.58466796875,-1.59345703125,0.06699218750000001,9.61337890625,0.9765625,0.0,-0.67138671875,0.0,0.0,0.0
14:31:28.815, -1.4307617187500001,1.1675781250000001,9.54638671875,-1.6173828125,0.06220703125,9.512890625,-0.30517578125,0.06103515625,0.0,0.0,0.0,0.0
14:31:28.925, -1.5025390625000001,1.052734375,9.61337890625,-1.6221679687500001,0.12919921875,9.575097656250001,0.0,1.03759765625,0.30517578125,0.0,0.0,0.0
14:31:29.035, -1.50732421875,1.0958007812500001,9.61337890625,-1.5886718750000002,0.12919921875,9.575097656250001,0.8544921875,0.54931640625,-0.79345703125,0.0,0.0,0.0
14:31:29.145, -1.49775390625,1.1580078125000002,9.5416015625,-1.6269531250000002,0.0765625,9.59423828125,0.244140625,-0.06103515625,0.0,0.0,0.0,0.0
14:31:29.254, -1.48818359375,1.1484375,9.551171875000001,-1.5982421875000001,0.11484375000000001,9.627734375000001,0.244140625,0.9765625,0.06103515625,0.0,0.0,0.0
14:31:29.363, -1.54560546875,1.1819335937500002,9.627734375000001,-1.5886718750000002,0.20576171875000002,9.4267578125,-0.54931640625,0.18310546875,0.0,0.0,0.0,0.0
14:31:29.473, -1.44990234375,1.1388671875,9.68037109375,-1.6173828125,0.019140625,8.63720703125,-0.3662109375,-1.0986328125,-0.06103515625,0.91552734375,0.54931640625,0.1220703125
14:31:29.583, -1.63173828125,1.0814453125,9.479394531250001,-1.72744140625,0.20576171875000002,8.89560546875,-0.42724609375,1.89208984375,0.0,-0.91552734375,0.732421875,0.0
14:31:29.693, -1.53125,1.18671875,9.670800781250001,-1.68916015625,0.10527343750000001,9.890917968750001,0.6103515625,0.8544921875,-0.67138671875,-0.54931640625,-0.3662109375,0.1220703125
14:31:29.803, -1.5264648437500001,1.1580078125000002,9.460253906250001,-1.6030273437500002,0.08134765625000001,9.63251953125,-0.3662109375,-0.06103515625,0.42724609375,-0.06103515625,-0.18310546875,-0.1220703125
14:31:29.913, -1.5503906250000001,1.1436523437500001,9.5607421875,-1.6460937500000001,0.1244140625,9.56552734375,-0.30517578125,-0.42724609375,0.18310546875,-0.1220703125,-0.1220703125,0.0
14:31:30.022, -1.5599609375,1.11494140625,9.646875000000001,-1.58388671875,0.09091796875000001,9.622949218750001,0.0,-0.8544921875,-0.06103515625,-0.06103515625,0.0,-0.1220703125
14:31:30.132, -1.4546875000000001,1.129296875,9.555957031250001,-1.6508789062500002,0.06220703125,9.627734375000001,0.732421875,-1.89208984375,-0.67138671875,0.06103515625,0.0,0.0
14:31:30.243, -1.44990234375,1.1436523437500001,9.503320312500001,-1.59345703125,0.0478515625,9.5607421875,-0.06103515625,-0.06103515625,0.6103515625,0.0,0.0,0.0
14:31:30.353, -1.54560546875,1.0623046875000002,9.646875000000001,-1.5982421875000001,0.11005859375,9.60859375,-0.18310546875,-0.06103515625,0.79345703125,0.0,-0.06103515625,0.1220703125
14:31:30.463, -1.473828125,1.10537109375,9.532031250000001,-1.5647460937500002,0.0861328125,9.53681640625,0.30517578125,-0.3662109375,-0.9765625,-0.06103515625,0.0,0.0
14:31:30.573, -1.50732421875,1.22021484375,9.527246093750001,-1.6221679687500001,0.09091796875000001,9.651660156250001,0.1220703125,0.1220703125,0.06103515625,0.1220703125,0.0,0.06103515625
14:31:30.682, -1.53125,1.17236328125,9.60859375,-1.5982421875000001,0.07177734375,9.49853515625,-0.79345703125,0.732421875,1.5869140625,-0.1220703125,0.0,0.0
14:31:30.792, -1.473828125,1.07666015625,9.503320312500001,-1.6125976562500002,0.11005859375,9.59423828125,-0.42724609375,-0.1220703125,0.42724609375,0.0,0.0,0.0
14:31:30.902, -1.5216796875,1.1005859375,9.5703125,-1.6030273437500002,0.07177734375,9.5607421875,0.42724609375,0.54931640625,-0.244140625,0.0,0.0,0.0
14:31:31.011, -1.50732421875,1.1340820312500002,9.603808593750001,-1.63173828125,0.0478515625,9.58466796875,-0.06103515625,-0.244140625,-1.220703125,0.0,0.0,0.0
14:31:31.121, -1.53125,1.18671875,9.589453125,-1.6125976562500002,0.095703125,9.5607421875,-0.30517578125,-0.54931640625,0.0,0.0,0.0,0.0
14:31:31.231, -1.45947265625,1.1101562500000002,9.5607421875,-1.6221679687500001,0.10527343750000001,9.589453125,0.06103515625,-0.48828125,0.42724609375,0.0,0.0,0.0
14:31:31.341, -1.45947265625,1.1962890625,9.599023437500001,-1.5886718750000002,0.11484375000000001,9.575097656250001,0.18310546875,1.03759765625,-0.48828125,0.0,0.0,0.0
14:31:31.451, -1.4833984375,1.1771484375,9.60859375,-1.6269531250000002,0.08134765625000001,9.627734375000001,0.42724609375,1.0986328125,0.0,0.0,0.0,0.0
14:31:31.562, -1.54560546875,1.1101562500000002,9.575097656250001,-1.6269531250000002,0.11005859375,9.60859375,-0.54931640625,1.15966796875,0.1220703125,0.0,0.0,0.0
14:31:31.672, -1.56953125,1.0814453125,9.551171875000001,-1.5982421875000001,0.09091796875000001,9.58466796875,0.54931640625,0.48828125,0.9765625,0.0,0.0,0.0
14:31:31.781, -1.5743164062500001,1.1819335937500002,9.603808593750001,-1.6125976562500002,0.09091796875000001,9.58466796875,1.15966796875,0.244140625,-1.40380859375,0.0,0.0,0.0
14:31:31.890, -1.5647460937500002,1.21064453125,9.5703125,-1.6508789062500002,0.06699218750000001,9.58466796875,0.0,1.03759765625,0.42724609375,0.0,0.0,0.0
14:31:32.000, -1.5503906250000001,1.1962890625,9.53681640625,-1.56953125,0.1244140625,9.56552734375,-0.30517578125,0.42724609375,0.3662109375,0.0,0.0,0.0
14:31:32.109, -1.58388671875,1.12451171875,9.5607421875,-1.6269531250000002,0.11484375000000001,9.527246093750001,-0.30517578125,0.18310546875,-0.18310546875,0.0,0.0,0.0
14:31:32.218, -1.5743164062500001,1.225,9.555957031250001,-1.59345703125,0.09091796875000001,9.56552734375,1.15966796875,0.6103515625,-1.220703125,0.0,0.0,0.0
14:31:32.328, -1.5743164062500001,1.244140625,9.579882812500001,-1.6508789062500002,0.06699218750000001,9.5703125,-2.197265625,0.8544921875,0.6103515625,0.0,0.0,0.0
14:31:32.437, -1.68916015625,1.0431640625,9.5703125,-1.6460937500000001,0.12919921875,9.599023437500001,1.28173828125,1.708984375,0.48828125,0.0,0.0,0.0
14:31:32.548, -1.6700195312500001,1.2345703125,9.589453125,-1.5791015625000002,0.095703125,9.599023437500001,0.0,0.18310546875,-1.52587890625,0.0,0.0,0.0
14:31:32.659, -1.63173828125,1.1005859375,9.49375,-1.58388671875,0.0478515625,9.479394531250001,-0.732421875,-0.18310546875,0.732421875,0.0,0.0,0.0
14:31:32.769, -1.6078125,1.1819335937500002,9.551171875000001,-1.6748046875000002,0.0861328125,9.63251953125,2.13623046875,1.03759765625,-0.6103515625,0.06103515625,0.0,0.06103515625
14:31:32.878, -1.7178710937500001,1.0814453125,9.48896484375,-1.6269531250000002,0.13398437500000002,9.64208984375,-3.90625,2.3193359375,2.62451171875,0.0,-0.1220703125,0.06103515625
14:31:32.988, -1.7465820312500002,0.9953125,9.551171875000001,-1.63173828125,0.11005859375,9.58466796875,2.9296875,0.6103515625,0.0,0.1220703125,0.06103515625,-0.06103515625
14:31:33.098, -1.7513671875,1.2776367187500002,9.56552734375,-1.6365234375000002,0.06220703125,9.64208984375,0.48828125,0.54931640625,-1.77001953125,-0.06103515625,-0.06103515625,0.06103515625
14:31:33.207, -1.77529296875,1.17236328125,9.508105468750001,-1.6078125,0.03828125,9.527246093750001,-0.91552734375,-0.30517578125,1.0986328125,-0.1220703125,0.0,-0.06103515625
14:31:33.317, -1.7130859375,1.129296875,9.603808593750001,-1.6030273437500002,0.1435546875,9.651660156250001,0.79345703125,-0.48828125,0.30517578125,0.18310546875,0.06103515625,0.1220703125
14:31:33.427, -1.7561523437500002,1.1962890625,9.474609375,-1.44990234375,-0.18662109375000002,9.0630859375,-0.30517578125,-0.48828125,-0.9765625,5.859375,-0.3662109375,-0.06103515625
14:31:33.536, -1.7130859375,1.3685546875,9.25927734375,-1.4690429687500002,-0.27275390625,9.527246093750001,0.54931640625,1.03759765625,0.244140625,-4.94384765625,-2.50244140625,0.06103515625
14:31:33.647, -1.7178710937500001,1.1484375,9.87177734375,-1.33984375,0.11484375000000001,9.49853515625,-5.31005859375,0.06103515625,1.28173828125,-0.67138671875,0.06103515625,-0.244140625
14:31:33.756, -1.7130859375,1.01923828125,9.4458984375,-1.5791015625000002,0.14833984375,9.76171875,1.15966796875,-3.11279296875,1.52587890625,0.6103515625,0.1220703125,0.06103515625
14:31:33.866, -1.6556640625,1.07666015625,9.5607421875,-1.59345703125,0.052636718750000006,9.412402343750001,0.0,-3.662109375,-1.708984375,-0.1220703125,0.3662109375,0.0
14:31:33.975, -1.4546875000000001,1.2728515625,9.551171875000001,-1.6125976562500002,0.057421875000000004,9.5416015625,1.77001953125,-2.5634765625,-0.9765625,0.1220703125,-0.30517578125,-0.1220703125
14:31:34.086, -1.44990234375,1.0431640625,9.474609375,-1.5791015625000002,0.09091796875000001,9.46982421875,-1.220703125,2.74658203125,2.01416015625,-0.244140625,-0.244140625,0.06103515625
14:31:34.195, -1.5791015625000002,1.0000976562500001,9.51767578125,-1.6269531250000002,0.0861328125,9.603808593750001,4.150390625,3.5400390625,-0.54931640625,0.18310546875,0.0,0.1220703125
14:31:34.305, -1.7417968750000001,1.36376953125,9.6181640625,-1.6030273437500002,0.06220703125,9.56552734375,2.62451171875,2.74658203125,-3.23486328125,-0.30517578125,-0.30517578125,0.06103515625
14:31:34.415, -1.82314453125,1.3829101562500001,9.58466796875,-1.6125976562500002,0.052636718750000006,9.579882812500001,0.06103515625,-0.1220703125,0.1220703125,0.1220703125,0.0,0.0
14:31:34.525, -1.703515625,1.25849609375,9.551171875000001,-1.6078125,0.1435546875,9.599023437500001,-0.6103515625,-0.91552734375,1.46484375,-0.06103515625,-0.06103515625,0.1220703125
14:31:34.635, -1.6221679687500001,1.2154296875000001,9.460253906250001,-1.6365234375000002,0.08134765625000001,9.64208984375,0.67138671875,-0.1220703125,-1.220703125,0.18310546875,0.06103515625,0.0
14:31:34.746, -1.63173828125,1.3254882812500002,9.455468750000001,-1.6030273437500002,0.08134765625000001,9.622949218750001,-1.46484375,-0.30517578125,0.732421875,-0.1220703125,0.0,0.0
14:31:34.856, -1.6700195312500001,1.17236328125,9.49853515625,-1.6365234375000002,0.095703125,9.5607421875,-1.28173828125,0.42724609375,1.46484375,0.06103515625,0.0,0.0
14:31:34.967, -1.68916015625,1.1436523437500001,9.589453125,-1.5886718750000002,0.12919921875,9.63251953125,0.732421875,0.732421875,-0.79345703125,-0.1220703125,-0.1220703125,-0.1220703125
14:31:35.077, -1.6365234375000002,1.2872070312500001,9.479394531250001,-1.5982421875000001,0.03828125,9.532031250000001,0.48828125,-0.9765625,0.0,-0.06103515625,0.1220703125,0.0
14:31:35.187, -1.6365234375000002,1.2537109375000002,9.436328125000001,-1.6221679687500001,0.0861328125,9.6181640625,-1.15966796875,0.0,0.9765625,0.0,0.0,0.0
14:31:35.297, -1.64130859375,1.1580078125000002,9.551171875000001,-1.63173828125,0.095703125,9.60859375,-0.6103515625,1.220703125,0.9765625,0.0,0.0,0.0
14:31:35.407, -1.6604492187500002,1.1915039062500001,9.527246093750001,-1.6365234375000002,0.0861328125,9.589453125,0.79345703125,0.67138671875,-0.42724609375,0.0,0.0,0.0
14:31:35.518, -1.7322265625000002,1.282421875,9.5224609375,-1.6269531250000002,0.04306640625,9.54638671875,-0.1220703125,0.48828125,-0.1220703125,0.0,0.0,0.0
14:31:35.629, -1.6987304687500002,1.2154296875000001,9.49375,-1.6125976562500002,0.095703125,9.60859375,-0.244140625,0.0,0.67138671875,0.0,0.0,0.0
14:31:35.739, -1.665234375,1.2154296875000001,9.508105468750001,-1.6030273437500002,0.07177734375,9.551171875000001,0.06103515625,0.0,0.30517578125,0.0,0.0,0.0
14:31:35.850, -1.703515625,1.25849609375,9.512890625,-1.6030273437500002,0.09091796875000001,9.58466796875,0.48828125,0.54931640625,-0.06103515625,0.0,0.0,0.0
14:31:35.961, -1.7465820312500002,1.29677734375,9.527246093750001,-1.5886718750000002,0.04306640625,9.53681640625,0.30517578125,1.0986328125,-0.06103515625,0.0,0.0,0.0
14:31:36.073, -1.7417968750000001,1.2776367187500002,9.527246093750001,-1.6556640625,0.10048828125,9.63251953125,-0.48828125,-0.3662109375,-0.06103515625,0.0,0.0,0.0
14:31:36.182, -1.6843750000000002,1.2297851562500002,9.45068359375,-1.6030273437500002,0.052636718750000006,9.532031250000001,0.244140625,-0.18310546875,-0.06103515625,0.0,0.0,0.0
14:31:36.292, -1.7083007812500002,1.2728515625,9.54638671875,-1.6365234375000002,0.08134765625000001,9.627734375000001,-0.06103515625,0.42724609375,0.06103515625,0.0,0.0,0.0
14:31:36.403, -1.73701171875,1.2058593750000002,9.512890625,-1.6365234375000002,0.0765625,9.575097656250001,-0.1220703125,0.54931640625,0.0,0.0,0.0,0.0
14:31:36.514, -1.7513671875,1.2872070312500001,9.579882812500001,-1.6173828125,0.08134765625000001,9.58466796875,-0.1220703125,0.9765625,0.0,0.0,0.0,0.0
14:31:36.625, -1.7417968750000001,1.244140625,9.4171875,-1.59345703125,0.13876953125000002,9.599023437500001,-0.3662109375,-0.1220703125,-0.1220703125,0.0,0.0,0.0
14:31:36.736, -1.7561523437500002,1.3111328125000001,9.436328125000001,-1.6365234375000002,0.04306640625,9.5607421875,1.28173828125,-0.30517578125,-0.6103515625,0.0,0.0,0.0
14:31:36.846, -1.7561523437500002,1.33984375,9.5607421875,-1.6125976562500002,0.0861328125,9.60859375,-1.15966796875,0.48828125,0.42724609375,0.0,0.0,0.0
14:31:36.957, -1.7657226562500001,1.18671875,9.474609375,-1.5982421875000001,0.08134765625000001,9.579882812500001,-1.5869140625,-0.732421875,1.40380859375,0.0,0.0,0.0
14:31:37.068, -1.7465820312500002,1.1819335937500002,9.5416015625,-1.5982421875000001,0.11484375000000001,9.555957031250001,0.67138671875,1.15966796875,-0.30517578125,0.0,0.0,0.0
14:31:37.178, -1.7657226562500001,1.25849609375,9.551171875000001,-1.6221679687500001,0.0861328125,9.622949218750001,1.52587890625,0.30517578125,-1.03759765625,0.0,0.0,0.0
14:31:37.289, -1.7800781250000002,1.3350585937500001,9.4458984375,-1.6460937500000001,0.02392578125,9.61337890625,0.1220703125,-0.244140625,0.06103515625,0.0,0.0,0.0
14:31:37.399, -1.8375000000000001,1.282421875,9.5607421875,-1.6030273437500002,0.07177734375,9.508105468750001,-1.708984375,0.48828125,1.52587890625,0.0,0.0,0.0
14:31:37.509, -1.8375000000000001,1.0814453125,9.54638671875,-1.6030273437500002,0.18662109375000002,9.63251953125,-0.8544921875,-0.91552734375,0.6103515625,0.0,0.0,0.0
14:31:37.620, -1.7705078125000002,1.3589843750000001,9.51767578125,-1.6221679687500001,0.0478515625,9.51767578125,1.220703125,-5.4931640625,0.1220703125,0.0,0.0,0.0
14:31:37.730, -1.7417968750000001,1.378125,9.60859375,-1.6269531250000002,0.0478515625,9.622949218750001,0.0,-6.16455078125,1.03759765625,0.0,0.0,0.0
14:31:37.842, -1.4451171875000002,1.4451171875000002,9.742578125000001,-1.6078125,0.11484375000000001,9.51767578125,-3.72314453125,-20.56884765625,8.85009765625,0.0,0.18310546875,0.0
14:31:37.953, -1.0383789062500002,1.2728515625,9.599023437500001,-1.6030273437500002,0.057421875000000004,9.5607421875,-2.01416015625,-22.4609375,14.70947265625,0.18310546875,0.0,0.0
14:31:38.064, -0.18183593750000002,0.95224609375,9.398046875,-1.58388671875,0.03828125,9.555957031250001,-1.64794921875,-6.04248046875,11.53564453125,0.0,-0.06103515625,0.06103515625
14:31:38.175, -0.10048828125,0.95224609375,9.575097656250001,-1.6460937500000001,0.1244140625,9.627734375000001,-1.953125,-1.89208984375,7.87353515625,0.3662109375,0.18310546875,-0.06103515625
14:31:38.285, -0.3923828125,0.9809570312500001,9.589453125,-1.6221679687500001,0.13398437500000002,9.5416015625,0.3662109375,4.0283203125,-1.5869140625,-0.1220703125,-0.06103515625,0.0
14:31:38.396, -0.6747070312500001,1.2537109375000002,9.80478515625,-1.6078125,0.02392578125,9.599023437500001,2.74658203125,3.35693359375,-2.38037109375,0.18310546875,0.0,-0.1220703125
14:31:38.507, -0.6603515625,1.30634765625,9.80478515625,-1.5982421875000001,0.153125,9.5416015625,-0.54931640625,1.220703125,-1.28173828125,0.0,0.0,0.06103515625
14:31:38.617, -0.59814453125,1.1101562500000002,9.61337890625,-1.6556640625,0.07177734375,9.59423828125,0.6103515625,-0.79345703125,-0.18310546875,-0.06103515625,-0.1220703125,0.06103515625
14:31:38.727, -0.5120117187500001,1.2872070312500001,9.60859375,-1.5982421875000001,0.057421875000000004,9.51767578125,0.8544921875,1.40380859375,-1.46484375,-0.18310546875,0.0,0.0
14:31:38.837, -0.59814453125,1.2728515625,9.64208984375,-1.6173828125,0.11005859375,9.59423828125,-0.67138671875,2.5634765625,0.0,0.30517578125,0.06103515625,0.06103515625
14:31:38.948, -0.7273437500000001,1.17236328125,9.66123046875,-1.64130859375,0.09091796875000001,9.555957031250001,-0.06103515625,2.50244140625,1.03759765625,0.0,0.0,0.0
14:31:39.058, -0.82783203125,1.244140625,9.7138671875,-1.6125976562500002,0.095703125,9.599023437500001,1.0986328125,1.64794921875,-1.0986328125,0.0,0.0,0.0
14:31:39.168, -0.73212890625,1.2632812500000001,9.7521484375,-1.5503906250000001,0.033496093750000004,9.59423828125,-1.708984375,-0.8544921875,0.18310546875,-0.3662109375,-0.244140625,-0.06103515625
14:31:39.279, -0.6220703125,1.1388671875,9.5703125,-1.6939453125000001,0.09091796875000001,9.60859375,0.48828125,0.54931640625,0.18310546875,0.0,0.06103515625,0.06103515625
14:31:39.390, -0.7943359375000001,1.225,9.599023437500001,-1.5982421875000001,-0.00478515625,9.48896484375,0.8544921875,5.18798828125,-1.15966796875,-0.1220703125,-0.244140625,-0.06103515625
14:31:39.501, -0.88046875,1.07666015625,9.670800781250001,-1.5408203125000002,0.153125,9.579882812500001,0.79345703125,4.45556640625,-0.91552734375,0.244140625,0.30517578125,0.0
14:31:39.612, -0.9283203125,1.3015625000000002,9.40283203125,-1.5599609375,0.2009765625,9.622949218750001,6.2255859375,2.3193359375,-2.0751953125,-0.67138671875,-0.18310546875,-0.06103515625
14:31:39.723, -0.976171875,1.6508789062500002,9.962695312500001,-1.6460937500000001,-0.10527343750000001,9.599023437500001,4.82177734375,1.52587890625,-2.38037109375,-0.1220703125,0.18310546875,-0.18310546875
14:31:39.834, -0.9809570312500001,1.6748046875000002,9.359765625000001,-1.6700195312500001,0.04306640625,9.622949218750001,-2.86865234375,5.37109375,0.06103515625,0.67138671875,0.0,0.30517578125
14:31:39.945, -1.33984375,1.25849609375,9.64208984375,-1.5408203125000002,0.11484375000000001,9.551171875000001,-7.568359375,7.62939453125,4.57763671875,0.0,0.06103515625,0.0
14:31:40.055, -1.40205078125,1.0814453125,9.9052734375,-1.4690429687500002,0.18662109375000002,9.60859375,0.54931640625,-0.67138671875,3.0517578125,-0.67138671875,-0.91552734375,-0.1220703125
14:31:40.167, -1.00966796875,1.44033203125,9.4650390625,-1.6987304687500002,0.028710937500000002,9.68515625,-0.9765625,-1.15966796875,-4.08935546875,-0.06103515625,0.1220703125,0.0
14:31:40.277, -1.1580078125000002,1.378125,9.599023437500001,-1.5982421875000001,0.06220703125,9.68994140625,-3.7841796875,3.60107421875,2.99072265625,0.3662109375,0.1220703125,-0.1220703125
14:31:40.387, -1.2297851562500002,0.976171875,9.699511718750001,-1.5025390625000001,0.11484375000000001,9.555957031250001,-1.8310546875,0.0,4.2724609375,-0.30517578125,0.18310546875,0.1220703125
14:31:40.497, -1.07666015625,1.1197265625000001,9.589453125,-1.67958984375,0.028710937500000002,9.675585937500001,2.25830078125,-0.3662109375,-2.9296875,0.18310546875,0.18310546875,0.0
14:31:40.607, -1.24892578125,1.3972656250000002,9.60859375,-1.6460937500000001,-0.0478515625,9.53681640625,-0.244140625,3.7841796875,-0.6103515625,-0.06103515625,0.0,-0.06103515625
14:31:40.719, -1.35419921875,1.24892578125,9.7330078125,-1.5791015625000002,0.057421875000000004,9.66123046875,-3.0517578125,0.3662109375,2.74658203125,0.3662109375,0.0,0.0
14:31:40.829, -1.25849609375,1.26806640625,9.589453125,-1.6556640625,0.11005859375,9.63251953125,-3.60107421875,0.0,5.4931640625,-0.1220703125,-0.06103515625,-0.06103515625
14:31:40.940, -1.244140625,1.1484375,9.68994140625,-1.6939453125000001,-0.033496093750000004,9.694726562500001,0.9765625,-0.42724609375,6.65283203125,0.30517578125,0.0,0.0
14:31:41.050, -1.225,1.20107421875,9.532031250000001,-1.5791015625000002,0.06220703125,9.436328125000001,-4.2724609375,0.79345703125,4.8828125,0.06103515625,-0.1220703125,0.0
14:31:41.161, -1.1915039062500001,0.8517578125,10.297656250000001,-1.5408203125000002,0.07177734375,9.80478515625,-2.99072265625,-0.18310546875,1.40380859375,0.18310546875,0.1220703125,-0.1220703125
14:31:41.271, -1.16279296875,0.8900390625000001,8.976953125000001,-1.7513671875,0.19140625,9.436328125000001,2.99072265625,-3.0517578125,1.03759765625,-0.6103515625,0.18310546875,0.0
14:31:41.381, -1.34462890625,1.2058593750000002,9.766503906250001,-1.7226562500000002,-0.033496093750000004,9.68515625,-1.15966796875,8.72802734375,-2.3193359375,0.30517578125,-0.1220703125,0.0
14:31:41.491, -1.4211914062500002,1.0718750000000001,9.819140625000001,-1.53125,0.06220703125,9.63251953125,-3.60107421875,-4.150390625,1.64794921875,0.18310546875,0.0,0.1220703125
14:31:41.602, -1.1962890625,0.7943359375000001,9.5607421875,-0.9953125,-0.401953125,8.809472656250001,-5.18798828125,-0.67138671875,3.84521484375,0.48828125,3.47900390625,0.18310546875
14:31:41.713, -1.22021484375,0.9378906250000001,9.646875000000001,-1.56953125,0.0,9.5416015625,6.28662109375,0.732421875,-3.84521484375,-0.6103515625,-1.0986328125,0.0
14:31:41.825, -1.320703125,1.16279296875,9.7138671875,-1.6078125,-0.028710937500000002,9.60859375,-1.28173828125,-0.732421875,-2.62451171875,0.3662109375,0.244140625,0.06103515625
14:31:41.936, -1.17236328125,0.8708984375000001,9.58466796875,-1.6604492187500002,0.1244140625,9.66123046875,-1.708984375,-1.15966796875,2.50244140625,0.244140625,-0.06103515625,0.0
14:31:42.046, -1.244140625,0.899609375,9.60859375,-1.6460937500000001,0.09091796875000001,9.551171875000001,4.5166015625,1.953125,-2.62451171875,0.0,0.06103515625,0.06103515625
14:31:42.156, -1.282421875,1.0958007812500001,9.747363281250001,-1.5982421875000001,0.03828125,9.5607421875,3.23486328125,1.64794921875,-4.7607421875,-0.244140625,-0.244140625,0.0
14:31:42.266, -1.25849609375,1.2058593750000002,9.6373046875,-1.5982421875000001,0.06220703125,9.5607421875,-0.48828125,1.03759765625,1.953125,0.3662109375,0.0,0.0
14:31:42.376, -1.2632812500000001,0.92353515625,9.60859375,-1.6460937500000001,0.11484375000000001,9.63251953125,-0.30517578125,0.79345703125,2.197265625,0.244140625,-0.1220703125,0.0
14:31:42.487, -1.35419921875,0.976171875,9.56552734375,-1.6173828125,0.08134765625000001,9.49375,1.89208984375,0.6103515625,-1.46484375,-0.244140625,-0.18310546875,-0.06103515625
14:31:42.598, -1.3972656250000002,1.2345703125,9.72822265625,-1.59345703125,0.014355468750000001,9.64208984375,2.01416015625,-0.67138671875,-1.0986328125,0.18310546875,0.0,-0.06103515625
14:31:42.709, -1.1580078125000002,1.052734375,9.503320312500001,-1.6030273437500002,0.057421875000000004,9.527246093750001,-1.0986328125,-0.732421875,0.79345703125,0.1220703125,0.1220703125,0.0
14:31:42.819, -1.2393554687500001,0.9666015625000001,9.6564453125,-1.6604492187500002,0.10527343750000001,9.627734375000001,1.28173828125,0.244140625,-0.54931640625,0.18310546875,0.0,0.0
14:31:42.930, -1.30634765625,1.2537109375000002,9.6373046875,-1.6078125,0.0095703125,9.54638671875,2.01416015625,0.54931640625,-2.9296875,-0.1220703125,0.0,0.0
14:31:43.041, -1.33984375,1.24892578125,9.666015625,-1.6125976562500002,0.014355468750000001,9.622949218750001,-1.0986328125,-1.46484375,-0.6103515625,0.1220703125,0.1220703125,-0.1220703125
14:31:43.152, -1.17236328125,1.12451171875,9.6564453125,-1.6078125,0.11005859375,9.5416015625,-1.64794921875,-2.197265625,1.3427734375,-0.06103515625,0.0,-0.06103515625
14:31:43.262, -1.10537109375,1.052734375,9.5703125,-1.63173828125,0.06699218750000001,9.63251953125,2.0751953125,1.15966796875,-0.67138671875,0.0,-0.06103515625,-0.06103515625
14:31:43.372, -1.1962890625,1.25849609375,9.589453125,-1.6030273437500002,-0.014355468750000001,9.575097656250001,1.46484375,0.8544921875,-1.77001953125,0.0,0.0,0.06103515625
14:31:43.484, -1.2632812500000001,1.2297851562500002,9.6564453125,-1.6365234375000002,0.0478515625,9.622949218750001,-2.44140625,0.9765625,1.15966796875,0.48828125,0.18310546875,0.1220703125
14:31:43.610, -1.3111328125000001,1.0144531250000002,9.670800781250001,-1.6221679687500001,0.10527343750000001,9.551171875000001,-0.3662109375,-0.30517578125,1.52587890625,-0.1220703125,-0.06103515625,0.0
14:31:43.722, -1.2345703125,1.1484375,9.646875000000001,-1.63173828125,-0.019140625,9.5703125,0.8544921875,-2.25830078125,-3.11279296875,0.0,0.0,0.0
14:31:43.832, -1.1915039062500001,1.29677734375,9.627734375000001,-1.6365234375000002,0.057421875000000004,9.603808593750001,-0.732421875,-2.0751953125,-0.244140625,0.0,0.0,0.0
14:31:43.943, -1.20107421875,1.0623046875000002,9.60859375,-1.64130859375,0.0478515625,9.5607421875,-1.8310546875,-2.25830078125,1.64794921875,0.0,0.0,0.0
14:31:44.054, -1.1101562500000002,1.17236328125,9.747363281250001,-1.6078125,0.07177734375,9.622949218750001,-0.3662109375,-6.4697265625,-0.18310546875,0.0,0.0,0.0
14:31:44.165, -0.9426757812500001,1.20107421875,9.694726562500001,-1.6365234375000002,-0.02392578125,9.503320312500001,-2.25830078125,-6.9580078125,1.46484375,0.0,0.0,0.0
14:31:44.275, -0.7943359375000001,1.05751953125,9.704296875,-1.6125976562500002,0.09091796875000001,9.64208984375,-4.39453125,-7.8125,2.01416015625,0.0,0.0,0.0
14:31:44.386, -0.6029296875000001,0.9474609375,9.7138671875,-1.6125976562500002,0.06220703125,9.532031250000001,-4.33349609375,-7.080078125,3.173828125,0.0,0.0,0.0
14:31:44.498, -0.4880859375,0.82783203125,9.64208984375,-1.58388671875,0.11484375000000001,9.6373046875,-3.0517578125,-7.75146484375,1.77001953125,0.0,0.0,0.0
14:31:44.608, -0.24404296875,0.8134765625000001,9.68994140625,-1.6125976562500002,0.052636718750000006,9.56552734375,-1.28173828125,-5.55419921875,0.8544921875,-0.1220703125,0.0,0.06103515625
14:31:44.719, -0.16269531250000002,0.765625,9.575097656250001,-1.6173828125,0.03828125,9.6181640625,-1.15966796875,-2.0751953125,1.220703125,0.1220703125,0.0,0.06103515625
14:31:44.830, -0.2009765625,0.7464843750000001,9.72822265625,-1.6030273437500002,0.0478515625,9.5607421875,0.0,0.3662109375,0.8544921875,-0.06103515625,0.0,-0.06103515625
14:31:44.941, -0.3349609375,0.80869140625,9.7138671875,-1.6125976562500002,0.0861328125,9.60859375,1.220703125,0.79345703125,-1.28173828125,0.06103515625,0.0,0.06103515625
14:31:45.051, -0.29189453125000003,0.92353515625,9.7138671875,-1.6125976562500002,0.02392578125,9.551171875000001,1.220703125,0.42724609375,-0.42724609375,0.0,0.18310546875,0.0
14:31:45.163, -0.2966796875,0.9474609375,9.742578125000001,-1.6078125,0.052636718750000006,9.60859375,-1.3427734375,1.3427734375,1.15966796875,0.1220703125,0.0,0.0
14:31:45.274, -0.287109375,0.7464843750000001,9.68994140625,-1.5982421875000001,0.033496093750000004,9.512890625,-0.9765625,0.3662109375,1.52587890625,-0.06103515625,0.0,-0.06103515625
14:31:45.385, -0.31103515625,0.7943359375000001,9.7521484375,-1.6508789062500002,0.07177734375,9.63251953125,-0.91552734375,0.06103515625,-0.67138671875,0.06103515625,0.0,0.06103515625
14:31:45.495, -0.34453125,0.7895507812500001,9.78564453125,-1.6173828125,0.03828125,9.53681640625,0.244140625,-0.06103515625,0.0,-0.06103515625,-0.18310546875,0.0
14:31:45.605, -0.28232421875,0.784765625,9.73779296875,-1.6030273437500002,0.07177734375,9.603808593750001,0.67138671875,0.06103515625,-0.732421875,0.0,0.0,0.0
14:31:45.717, -0.33017578125,0.8421875000000001,9.7330078125,-1.5982421875000001,0.06699218750000001,9.579882812500001,0.9765625,0.0,-0.6103515625,0.0,0.0,0.0
14:31:45.827, -0.35888671875,0.8613281250000001,9.80478515625,-1.6221679687500001,0.057421875000000004,9.60859375,0.732421875,0.244140625,-0.42724609375,0.0,0.0,0.0
14:31:45.937, -0.32539062500000004,0.8708984375000001,9.70908203125,-1.6030273437500002,0.057421875000000004,9.555957031250001,-0.91552734375,0.1220703125,0.42724609375,0.0,0.0,0.0
14:31:46.049, -0.36845703125,0.7464843750000001,9.7521484375,-1.6269531250000002,0.057421875000000004,9.622949218750001,0.18310546875,0.79345703125,1.3427734375,0.0,0.0,0.0
14:31:46.159, -0.33017578125,0.8517578125,9.7521484375,-1.5791015625000002,0.07177734375,9.622949218750001,1.708984375,0.732421875,-1.708984375,0.0,0.0,0.0
14:31:46.270, -0.3541015625,0.9187500000000001,9.670800781250001,-1.6125976562500002,-0.019140625,9.551171875000001,1.3427734375,-0.1220703125,-0.8544921875,0.0,0.0,0.0
14:31:46.382, -0.3541015625,0.92353515625,9.723437500000001,-1.6365234375000002,0.0765625,9.603808593750001,-0.1220703125,0.42724609375,0.79345703125,0.0,0.0,0.0
14:31:46.491, -0.36367187500000003,0.8326171875,9.704296875,-1.6269531250000002,0.0861328125,9.58466796875,-0.1220703125,0.79345703125,0.48828125,0.0,0.0,0.0
14:31:46.603, -0.36367187500000003,0.8852539062500001,9.675585937500001,-1.6269531250000002,0.033496093750000004,9.622949218750001,0.8544921875,-0.244140625,-0.732421875,0.0,0.0,0.0
14:31:46.714, -0.3541015625,0.9618164062500001,9.7138671875,-1.6460937500000001,0.028710937500000002,9.5703125,0.0,0.67138671875,-0.06103515625,0.0,0.0,0.0
14:31:46.825, -0.401953125,0.8900390625000001,9.76171875,-1.6365234375000002,0.0478515625,9.63251953125,-0.54931640625,1.0986328125,1.0986328125,0.0,0.0,0.0
14:31:46.936, -0.44501953125000004,0.8326171875,9.68037109375,-1.5982421875000001,0.06220703125,9.53681640625,0.18310546875,0.30517578125,0.30517578125,0.0,0.0,0.0
14:31:47.048, -0.41630859375,0.9139648437500001,9.77607421875,-1.6365234375000002,0.052636718750000006,9.627734375000001,0.42724609375,0.1220703125,-0.67138671875,0.0,0.0,0.0
14:31:47.158, -0.41630859375,0.9187500000000001,9.68037109375,-1.5886718750000002,0.02392578125,9.5703125,-0.54931640625,0.3662109375,0.06103515625,0.0,0.0,0.0
14:31:47.268, -0.38759765625000003,0.8613281250000001,9.72822265625,-1.6269531250000002,0.095703125,9.646875000000001,-0.30517578125,0.244140625,0.54931640625,0.0,0.0,0.0
14:31:47.380, -0.440234375,0.87568359375,9.76171875,-1.6078125,0.07177734375,9.555957031250001,0.6103515625,0.91552734375,0.06103515625,0.0,0.0,0.0
14:31:47.490, -0.47851562500000006,0.9809570312500001,9.771289062500001,-1.6508789062500002,0.0478515625,9.627734375000001,0.244140625,0.0,-0.1220703125,0.0,0.0,0.0
14:31:47.601, -0.45937500000000003,0.9187500000000001,9.66123046875,-1.6078125,0.057421875000000004,9.5607421875,-1.0986328125,-0.42724609375,0.732421875,0.0,0.0,0.0
14:31:47.713, -0.440234375,0.7943359375000001,9.75693359375,-1.6030273437500002,0.0861328125,9.58466796875,-0.8544921875,0.42724609375,1.40380859375,0.0,0.0,0.0
14:31:47.823, -0.42109375000000004,0.8374023437500001,9.68515625,-1.59345703125,0.0861328125,9.5607421875,0.9765625,-0.244140625,-1.03759765625,0.0,0.0,0.0
14:31:47.933, -0.43544921875000003,0.9570312500000001,9.718652343750001,-1.63173828125,0.0095703125,9.599023437500001,-0.1220703125,0.0,-0.48828125,0.0,0.0,0.0
14:31:48.045, -0.49765625,0.8182617187500001,9.7138671875,-1.5982421875000001,0.03828125,9.53681640625,-0.732421875,0.30517578125,1.46484375,0.0,0.0,0.0
14:31:48.154, -0.4880859375,0.8374023437500001,9.80478515625,-1.6173828125,0.06220703125,9.532031250000001,-0.54931640625,0.30517578125,-0.42724609375,0.0,0.0,0.0
14:31:48.264, -0.45458984375000006,0.8708984375000001,9.646875000000001,-1.6221679687500001,0.06220703125,9.6181640625,1.03759765625,0.42724609375,-0.79345703125,0.0,0.0,0.0
14:31:48.376, -0.46416015625,0.9857421875000001,9.7521484375,-1.6221679687500001,0.033496093750000004,9.5703125,0.244140625,0.48828125,-0.3662109375,0.0,0.0,0.0
14:31:48.486, -0.49287109375000004,0.88046875,9.723437500000001,-1.6078125,0.07177734375,9.575097656250001,-0.244140625,1.40380859375,1.0986328125,0.0,0.0,0.0
14:31:48.597, -0.5120117187500001,0.8230468750000001,9.666015625,-1.5886718750000002,0.06220703125,9.5703125,1.28173828125,2.62451171875,-0.8544921875,0.0,0.0,0.0
14:31:48.708, -0.59814453125,0.9426757812500001,9.766503906250001,-1.6030273437500002,0.057421875000000004,9.64208984375,1.28173828125,1.15966796875,-1.220703125,0.0,0.0,0.0
14:31:48.819, -0.6125,1.0000976562500001,9.675585937500001,-1.5982421875000001,0.0095703125,9.532031250000001,0.30517578125,0.732421875,0.244140625,0.0,0.0,0.0
14:31:48.929, -0.61728515625,0.8948242187500001,9.699511718750001,-1.6460937500000001,0.0861328125,9.61337890625,-0.732421875,0.18310546875,0.9765625,0.0,0.0,0.0
14:31:49.040, -0.5598632812500001,0.85654296875,9.7138671875,-1.5886718750000002,0.08134765625000001,9.5416015625,2.38037109375,2.25830078125,-2.50244140625,0.0,0.0,0.0
14:31:49.150, -0.6890625,1.0623046875000002,9.75693359375,-1.6365234375000002,0.0095703125,9.651660156250001,1.89208984375,1.03759765625,-2.5634765625,0.0,0.0,0.0
14:31:49.261, -0.73212890625,1.091015625,9.70908203125,-1.5982421875000001,0.033496093750000004,9.551171875000001,-0.79345703125,0.8544921875,0.18310546875,0.0,0.0,0.0
14:31:49.372, -0.7273437500000001,0.8134765625000001,9.80478515625,-1.6221679687500001,0.09091796875000001,9.64208984375,-0.18310546875,-0.18310546875,0.732421875,0.0,0.0,0.0
14:31:49.483, -0.6220703125,0.9953125,9.651660156250001,-1.64130859375,0.057421875000000004,9.5416015625,1.28173828125,-1.5869140625,-1.708984375,0.0,0.0,0.0
14:31:49.595, -0.63642578125,1.06708984375,9.60859375,-1.64130859375,0.019140625,9.622949218750001,0.30517578125,1.46484375,-0.1220703125,0.0,0.0,0.0
14:31:49.705, -0.6986328125000001,0.9474609375,9.72822265625,-1.5791015625000002,0.04306640625,9.5607421875,-0.9765625,1.3427734375,1.46484375,0.0,0.0,0.0
14:31:49.816, -0.71298828125,0.9331054687500001,9.694726562500001,-1.6269531250000002,0.0861328125,9.56552734375,-0.54931640625,0.18310546875,0.42724609375,0.0,0.0,0.0
14:31:49.927, -0.7225585937500001,0.9570312500000001,9.6564453125,-1.6125976562500002,0.057421875000000004,9.555957031250001,0.244140625,0.0,-0.732421875,0.0,0.0,0.0
14:31:50.038, -0.6603515625,0.9331054687500001,9.66123046875,-1.6365234375000002,0.04306640625,9.54638671875,-0.30517578125,-0.9765625,0.79345703125,0.0,0.0,0.0
14:31:50.148, -0.6747070312500001,1.0431640625,9.694726562500001,-1.6173828125,0.052636718750000006,9.579882812500001,-0.48828125,-0.6103515625,0.0,0.0,0.0,0.0
14:31:50.259, -0.6747070312500001,0.9474609375,9.7330078125,-1.63173828125,0.02392578125,9.56552734375,-2.0751953125,-0.1220703125,1.8310546875,0.0,0.0,0.0
14:31:50.370, -0.63642578125,0.8182617187500001,9.694726562500001,-1.6221679687500001,0.09091796875000001,9.59423828125,0.0,1.03759765625,0.30517578125,0.0,0.0,0.0
14:31:50.480, -0.6794921875000001,0.9139648437500001,9.7138671875,-1.6221679687500001,0.0478515625,9.627734375000001,0.18310546875,0.79345703125,-0.91552734375,0.0,0.0,0.0
14:31:50.590, -0.69384765625,0.95224609375,9.70908203125,-1.6173828125,0.052636718750000006,9.6181640625,0.54931640625,0.54931640625,-0.244140625,0.0,0.0,0.0
14:31:50.700, -0.7177734375,0.9187500000000001,9.704296875,-1.6221679687500001,0.04306640625,9.5703125,-0.48828125,0.0,0.42724609375,0.0,0.0,0.0
14:31:50.811, -0.71298828125,0.899609375,9.68037109375,-1.5886718750000002,0.10048828125,9.59423828125,-0.48828125,-0.8544921875,1.03759765625,0.0,0.0,0.0
14:31:50.922, -0.63642578125,0.8469726562500001,9.771289062500001,-1.6030273437500002,0.0861328125,9.579882812500001,0.9765625,-0.91552734375,0.06103515625,0.0,0.0,0.0
14:31:51.032, -0.6077148437500001,1.0048828125,9.61337890625,-1.6365234375000002,0.0478515625,9.60859375,1.0986328125,0.732421875,-0.79345703125,0.0,0.0,0.0
14:31:51.142, -0.73212890625,0.9474609375,9.68994140625,-1.59345703125,0.02392578125,9.53681640625,-2.01416015625,1.52587890625,0.244140625,0.0,0.0,0.0
14:31:51.253, -0.7225585937500001,0.8230468750000001,9.819140625000001,-1.6030273437500002,0.13876953125000002,9.6564453125,-0.06103515625,0.42724609375,0.42724609375,0.0,0.0,0.0
14:31:51.364, -0.6986328125000001,0.8517578125,9.603808593750001,-1.6221679687500001,0.0478515625,9.532031250000001,0.8544921875,-0.42724609375,-1.3427734375,0.0,0.0,0.0
14:31:51.474, -0.68427734375,1.00966796875,9.72822265625,-1.6125976562500002,0.014355468750000001,9.6564453125,0.8544921875,0.48828125,-1.03759765625,0.0,0.0,0.0
14:31:51.585, -0.6986328125000001,0.8469726562500001,9.6373046875,-1.6078125,0.095703125,9.532031250000001,-1.0986328125,0.18310546875,1.03759765625,0.0,0.0,0.0
14:31:51.696, -0.71298828125,0.80869140625,9.6564453125,-1.6604492187500002,0.0765625,9.627734375000001,0.79345703125,0.732421875,-1.03759765625,0.0,0.0,0.0
14:31:51.807, -0.7464843750000001,0.9905273437500001,9.795214843750001,-1.56953125,0.04306640625,9.56552734375,1.3427734375,0.48828125,-1.5869140625,0.0,0.0,0.0
14:31:51.918, -0.7225585937500001,0.9666015625000001,9.627734375000001,-1.6460937500000001,0.03828125,9.603808593750001,1.40380859375,-0.8544921875,-0.48828125,0.0,0.0,0.0
14:31:52.028, -0.73212890625,0.9378906250000001,9.68037109375,-1.5982421875000001,0.03828125,9.54638671875,0.3662109375,0.244140625,0.0,0.0,0.0,0.0
14:31:52.138, -0.76083984375,0.9857421875000001,9.704296875,-1.6125976562500002,0.057421875000000004,9.575097656250001,0.30517578125,-0.48828125,0.244140625,0.0,0.0,0.0
14:31:52.248, -0.71298828125,1.0144531250000002,9.718652343750001,-1.59345703125,0.03828125,9.59423828125,0.6103515625,-0.42724609375,-0.1220703125,0.0,0.0,0.0
14:31:52.359, -0.71298828125,0.9905273437500001,9.651660156250001,-1.63173828125,0.0478515625,9.64208984375,-0.18310546875,0.3662109375,0.0,0.0,0.0,0.0
14:31:52.470, -0.77998046875,0.9474609375,9.70908203125,-1.6173828125,0.04306640625,9.53681640625,0.244140625,0.30517578125,0.42724609375,0.0,0.0,0.0
14:31:52.581, -0.7369140625,1.0048828125,9.646875000000001,-1.6221679687500001,0.02392578125,9.575097656250001,0.18310546875,0.06103515625,-0.30517578125,0.0,0.0,0.0
14:31:52.693, -0.7560546875,1.0383789062500002,9.68515625,-1.5886718750000002,0.0765625,9.6181640625,-0.244140625,0.67138671875,0.6103515625,0.0,0.0,0.0
14:31:52.804, -0.7704101562500001,0.9953125,9.70908203125,-1.6460937500000001,0.03828125,9.53681640625,0.244140625,0.18310546875,0.0,0.0,0.0,0.0
14:31:52.914, -0.8134765625000001,1.0623046875000002,9.75693359375,-1.6030273437500002,0.057421875000000004,9.599023437500001,0.67138671875,1.220703125,-0.1220703125,0.0,0.0,0.0
14:31:53.025, -0.77998046875,0.9809570312500001,9.766503906250001,-1.6269531250000002,0.0095703125,9.603808593750001,-0.244140625,-0.6103515625,0.67138671875,0.0,0.0,0.0
14:31:53.151, -0.7464843750000001,1.0240234375000001,9.49853515625,-1.6269531250000002,0.10527343750000001,9.579882812500001,0.8544921875,0.9765625,-0.30517578125,0.0,0.0,0.0
14:31:53.261, -0.8421875000000001,1.0958007812500001,9.857421875,-1.5791015625000002,0.04306640625,9.627734375000001,0.6103515625,0.3662109375,-0.30517578125,0.0,0.0,0.0
14:31:53.372, -0.7751953125000001,1.0431640625,9.51767578125,-1.6365234375000002,0.02392578125,9.589453125,-0.18310546875,-0.9765625,0.06103515625,0.0,0.0,0.0
14:31:53.483, -0.7895507812500001,1.0431640625,9.76171875,-1.6556640625,0.052636718750000006,9.5703125,-0.42724609375,0.9765625,0.732421875,0.0,0.0,0.0
14:31:53.593, -0.8661132812500001,0.9618164062500001,9.575097656250001,-1.6604492187500002,0.057421875000000004,9.599023437500001,0.0,1.220703125,0.1220703125,0.79345703125,0.0,-0.1220703125
14:31:53.704, -0.8661132812500001,1.05751953125,9.85263671875,-1.5503906250000001,0.033496093750000004,9.5224609375,0.732421875,-0.3662109375,-0.54931640625,0.1220703125,0.0,-0.06103515625
14:31:53.815, -0.7464843750000001,1.0862304687500002,9.58466796875,-1.63173828125,0.06699218750000001,9.61337890625,-0.42724609375,-0.3662109375,0.42724609375,0.0,0.0,0.0
14:31:53.925, -0.765625,1.0048828125,9.704296875,-1.64130859375,0.11005859375,9.5607421875,-0.3662109375,0.18310546875,0.732421875,-0.06103515625,0.06103515625,-0.06103515625
14:31:54.035, -0.8182617187500001,1.091015625,9.670800781250001,-1.59345703125,-0.0861328125,9.723437500000001,1.15966796875,0.0,-0.9765625,-1.0986328125,-0.67138671875,-0.06103515625
14:31:54.146, -0.7991210937500001,1.1101562500000002,9.6373046875,-1.67958984375,0.03828125,9.575097656250001,-0.79345703125,-0.48828125,0.06103515625,0.67138671875,0.48828125,-0.1220703125
14:31:54.257, -0.74169921875,1.0383789062500002,9.7521484375,-1.6125976562500002,0.0861328125,9.627734375000001,-2.0751953125,-0.06103515625,1.89208984375,0.42724609375,0.18310546875,0.0
14:31:54.367, -0.82783203125,0.9618164062500001,9.68994140625,-1.7083007812500002,0.16748046875,9.555957031250001,0.48828125,0.1220703125,-0.54931640625,0.0,-0.30517578125,0.0
14:31:54.476, -0.765625,1.06708984375,9.68037109375,-1.7657226562500001,0.66513671875,9.589453125,0.42724609375,-0.1220703125,-0.30517578125,-0.9765625,-2.13623046875,0.0
14:31:54.586, -0.76083984375,1.0383789062500002,9.75693359375,-1.6508789062500002,0.0095703125,9.37412109375,0.18310546875,-1.0986328125,0.42724609375,-0.06103515625,0.244140625,0.0
14:31:54.697, -0.7464843750000001,1.0144531250000002,9.5224609375,-1.6173828125,0.0861328125,9.704296875,-0.732421875,0.42724609375,0.732421875,0.42724609375,0.48828125,0.0
14:31:54.807, -0.765625,0.9378906250000001,9.766503906250001,-1.6030273437500002,0.0478515625,9.51767578125,0.06103515625,-0.06103515625,-0.06103515625,0.0,-0.06103515625,0.0
14:31:54.917, -0.7943359375000001,1.052734375,9.77607421875,-1.64130859375,0.07177734375,9.627734375000001,-0.1220703125,-0.18310546875,-0.244140625,0.244140625,0.244140625,-0.06103515625
14:31:55.028, -0.6890625,1.11494140625,9.551171875000001,-1.6604492187500002,0.057421875000000004,9.5703125,0.42724609375,-0.8544921875,2.44140625,0.0,-0.06103515625,0.0
14:31:55.138, -0.6603515625,1.1101562500000002,9.8478515625,-1.6125976562500002,0.028710937500000002,9.575097656250001,-1.953125,-1.220703125,4.57763671875,0.18310546875,0.06103515625,0.0
14:31:55.249, -0.8230468750000001,0.80869140625,9.56552734375,-1.5647460937500002,0.07177734375,9.58466796875,-3.23486328125,2.9296875,2.62451171875,0.06103515625,0.1220703125,0.0
14:31:55.360, -0.8613281250000001,1.0000976562500001,9.819140625000001,-1.5168945312500002,0.028710937500000002,9.58466796875,1.0986328125,-1.89208984375,-4.7607421875,-0.18310546875,0.0,0.0
14:31:55.471, -0.7464843750000001,1.1005859375,9.75693359375,-1.7178710937500001,0.052636718750000006,9.7138671875,-2.13623046875,-3.0517578125,-2.9296875,0.3662109375,0.18310546875,0.0
14:31:55.581, -0.69384765625,0.9187500000000001,9.77607421875,-1.665234375,0.07177734375,9.70908203125,0.30517578125,-0.8544921875,4.39453125,0.0,0.244140625,0.1220703125
14:31:55.691, -0.63642578125,0.976171875,9.63251953125,-1.6939453125000001,0.11005859375,9.670800781250001,1.77001953125,-0.3662109375,1.28173828125,0.30517578125,0.1220703125,-0.06103515625
14:31:55.802, -0.6986328125000001,1.1436523437500001,9.73779296875,-1.6173828125,0.06220703125,9.603808593750001,0.30517578125,-0.67138671875,0.91552734375,-0.3662109375,-0.18310546875,0.0
14:31:55.913, -0.6794921875000001,0.9426757812500001,9.68515625,-1.6748046875000002,0.052636718750000006,9.68515625,-1.03759765625,0.42724609375,2.0751953125,0.244140625,0.1220703125,0.0
14:31:56.023, -0.6268554687500001,0.9139648437500001,9.603808593750001,-1.68916015625,0.13398437500000002,9.723437500000001,-1.220703125,0.1220703125,0.6103515625,0.18310546875,-0.06103515625,0.0
14:31:56.135, -0.66513671875,0.8852539062500001,9.72822265625,-1.6556640625,0.11005859375,9.651660156250001,1.5869140625,0.6103515625,-0.06103515625,0.18310546875,0.244140625,0.1220703125
14:31:56.245, -0.6747070312500001,1.052734375,9.675585937500001,-1.6365234375000002,0.057421875000000004,9.68994140625,1.3427734375,0.1220703125,-4.33349609375,0.48828125,0.42724609375,0.0
14:31:56.355, -0.63642578125,1.1819335937500002,9.579882812500001,-1.6125976562500002,0.014355468750000001,9.5703125,1.40380859375,1.46484375,0.06103515625,0.42724609375,0.54931640625,0.0
14:31:56.465, -0.8134765625000001,1.00966796875,9.76171875,-1.5168945312500002,-0.014355468750000001,9.44111328125,0.9765625,0.9765625,-0.48828125,0.244140625,0.48828125,0.0
14:31:56.575, -0.765625,1.0958007812500001,9.63251953125,-1.4833984375,0.019140625,9.383691406250001,0.91552734375,0.732421875,1.40380859375,-0.244140625,-0.18310546875,0.06103515625
14:31:56.686, -0.8708984375000001,1.0240234375000001,9.747363281250001,-1.5503906250000001,0.057421875000000004,9.4650390625,0.732421875,0.0,-3.5400390625,-0.48828125,-0.6103515625,0.0
14:31:56.797, -0.7560546875,1.1005859375,9.599023437500001,-1.6843750000000002,0.11005859375,9.7138671875,-0.48828125,-3.35693359375,-1.40380859375,-0.67138671875,-0.67138671875,-0.1220703125
14:31:56.907, -0.63642578125,1.129296875,9.61337890625,-1.7083007812500002,0.09091796875000001,9.7521484375,0.18310546875,-2.44140625,-0.9765625,0.06103515625,0.06103515625,-0.1220703125
14:31:57.018, -0.708203125,1.052734375,9.76171875,-1.63173828125,0.08134765625000001,9.6564453125,-0.91552734375,0.8544921875,-1.8310546875,0.6103515625,0.3662109375,0.06103515625
14:31:57.129, -0.68427734375,1.20107421875,9.72822265625,-1.5791015625000002,0.0,9.532031250000001,-2.3193359375,-3.2958984375,-2.99072265625,-0.06103515625,0.0,0.0
14:31:57.239, -0.57421875,1.2297851562500002,9.866992187500001,-1.6125976562500002,0.06220703125,9.575097656250001,-2.99072265625,-2.44140625,1.52587890625,-0.1220703125,0.0,0.06103515625
14:31:57.351, -0.516796875,0.9187500000000001,9.474609375,-1.6125976562500002,0.06220703125,9.555957031250001,-4.57763671875,-2.13623046875,6.34765625,-0.06103515625,0.1220703125,0.06103515625
14:31:57.461, -0.69384765625,0.6316406250000001,10.01533203125,-1.6221679687500001,0.052636718750000006,9.64208984375,-2.50244140625,0.3662109375,1.40380859375,0.0,0.06103515625,0.06103515625
14:31:57.572, -0.59814453125,0.8182617187500001,9.49853515625,-1.6125976562500002,0.033496093750000004,9.5607421875,0.1220703125,0.42724609375,-1.64794921875,-0.3662109375,0.1220703125,0.06103515625
14:31:57.683, -0.6555664062500001,0.8421875000000001,9.72822265625,-1.6078125,0.07177734375,9.6181640625,2.13623046875,-0.30517578125,-2.99072265625,0.0,0.0,-0.06103515625
14:31:57.793, -0.6220703125,0.9474609375,9.666015625,-1.5791015625000002,0.057421875000000004,9.54638671875,1.40380859375,-1.52587890625,-3.90625,-0.1220703125,0.0,0.0
14:31:57.904, -0.6077148437500001,1.0144531250000002,9.718652343750001,-1.63173828125,0.08134765625000001,9.64208984375,2.3193359375,0.6103515625,-1.28173828125,0.06103515625,-0.06103515625,0.0
14:31:58.014, -0.54072265625,0.9809570312500001,9.64208984375,-1.6030273437500002,0.0095703125,9.527246093750001,1.64794921875,0.8544921875,-1.64794921875,-0.06103515625,0.0,0.0
14:31:58.125, -0.68427734375,1.0383789062500002,9.814355468750001,-1.6221679687500001,0.0765625,9.622949218750001,0.732421875,0.9765625,-1.15966796875,0.0,0.0,0.0
14:31:58.236, -0.69384765625,1.0718750000000001,9.70908203125,-1.6030273437500002,0.052636718750000006,9.56552734375,1.03759765625,1.8310546875,0.79345703125,0.0,0.0,0.0
14:31:58.347, -0.71298828125,1.03359375,9.68994140625,-1.6365234375000002,0.07177734375,9.622949218750001,0.8544921875,0.42724609375,-0.244140625,0.0,0.0,0.0
14:31:58.458, -0.6890625,1.07666015625,9.78564453125,-1.59345703125,0.028710937500000002,9.551171875000001,0.8544921875,-0.18310546875,-1.77001953125,0.0,0.0,0.0
14:31:58.568, -0.669921875,1.1340820312500002,9.63251953125,-1.6221679687500001,0.04306640625,9.589453125,0.3662109375,0.3662109375,-0.30517578125,0.0,0.0,0.0
14:31:58.679, -0.7177734375,1.06708984375,9.68037109375,-1.5886718750000002,0.04306640625,9.56552734375,0.8544921875,1.03759765625,-0.06103515625,0.0,0.0,0.0
14:31:58.790, -0.68427734375,1.07666015625,9.6181640625,-1.64130859375,0.02392578125,9.579882812500001,0.1220703125,0.54931640625,-1.28173828125,0.0,0.0,0.0
14:31:58.900, -0.7034179687500001,1.12451171875,9.7138671875,-1.5791015625000002,0.0765625,9.56552734375,0.0,0.0,-0.732421875,0.0,0.0,0.0
14:31:59.010, -0.73212890625,1.0958007812500001,9.699511718750001,-1.6030273437500002,0.057421875000000004,9.5703125,-0.18310546875,1.03759765625,0.6103515625,0.0,0.0,0.0
14:31:59.121, -0.7464843750000001,1.10537109375,9.64208984375,-1.6173828125,0.033496093750000004,9.589453125,-0.06103515625,0.54931640625,0.8544921875,0.0,0.0,0.0
14:31:59.231, -0.7512695312500001,1.1197265625000001,9.699511718750001,-1.6173828125,0.033496093750000004,9.589453125,-0.79345703125,0.67138671875,1.40380859375,0.0,0.0,0.0
14:31:59.342, -0.7177734375,1.0240234375000001,9.666015625,-1.6030273437500002,0.07177734375,9.58466796875,0.6103515625,0.18310546875,-0.06103515625,0.0,0.0,0.0
14:31:59.453, -0.8134765625000001,1.0958007812500001,9.58466796875,-1.6221679687500001,0.04306640625,9.5703125,0.9765625,1.220703125,-0.244140625,0.0,0.0,0.0
14:31:59.564, -0.8182617187500001,1.15322265625,9.857421875,-1.5982421875000001,0.08134765625000001,9.61337890625,1.5869140625,-1.0986328125,0.18310546875,0.0,0.0,0.0
14:31:59.676, -0.6412109375,1.1484375,9.49853515625,-1.63173828125,0.028710937500000002,9.555957031250001,1.52587890625,0.91552734375,0.91552734375,0.0,0.0,0.0
14:31:59.786, -0.784765625,1.16279296875,9.890917968750001,-1.6221679687500001,0.057421875000000004,9.60859375,0.06103515625,-0.244140625,-1.40380859375,0.0,0.0,0.0
14:31:59.897, -0.80869140625,1.2058593750000002,9.718652343750001,-1.5743164062500001,0.095703125,9.53681640625,0.91552734375,-0.30517578125,-0.8544921875,0.0,0.0,0.0
14:32:00.008, -0.765625,1.2154296875000001,9.666015625,-1.6125976562500002,0.052636718750000006,9.59423828125,1.0986328125,0.9765625,-1.28173828125,0.06103515625,0.06103515625,-0.06103515625
14:32:00.119, -0.80869140625,1.36376953125,9.6564453125,-1.6843750000000002,0.0,9.5607421875,0.1220703125,-0.91552734375,-0.18310546875,-0.18310546875,-0.30517578125,0.06103515625
14:32:00.229, -0.784765625,1.3015625000000002,9.68994140625,-1.5599609375,0.0765625,9.59423828125,-1.77001953125,-2.01416015625,2.86865234375,0.244140625,-0.30517578125,0.0
14:32:00.341, -0.7512695312500001,1.1005859375,9.6564453125,-1.5886718750000002,0.0478515625,9.5703125,-0.3662109375,-0.9765625,2.38037109375,-0.48828125,0.06103515625,0.0
14:32:00.451, -0.6412109375,1.2537109375000002,9.56552734375,-1.7561523437500002,0.0478515625,9.699511718750001,1.46484375,0.1220703125,-1.3427734375,0.3662109375,0.1220703125,-0.06103515625
14:32:00.562, -0.7943359375000001,1.2393554687500001,9.66123046875,-1.5982421875000001,0.14833984375,9.4650390625,0.0,0.8544921875,-0.244140625,-0.244140625,-0.244140625,-0.06103515625
14:32:00.673, -0.7464843750000001,1.20107421875,9.694726562500001,-1.6460937500000001,0.00478515625,9.66123046875,2.9296875,-0.06103515625,-1.220703125,0.0,0.06103515625,0.0
14:32:00.783, -0.73212890625,1.4307617187500001,9.694726562500001,-1.6030273437500002,-0.00478515625,9.5416015625,-2.0751953125,1.64794921875,0.42724609375,0.0,-0.06103515625,0.0
14:32:00.893, -0.80390625,1.31591796875,9.627734375000001,-1.6078125,0.06699218750000001,9.551171875000001,-3.35693359375,1.77001953125,2.197265625,0.1220703125,0.0,0.06103515625
14:32:01.004, -0.76083984375,1.18671875,9.747363281250001,-1.59345703125,0.04306640625,9.61337890625,1.64794921875,-1.953125,-0.54931640625,-0.18310546875,-0.06103515625,0.0
14:32:01.115, -0.6986328125000001,1.45947265625,9.603808593750001,-1.6365234375000002,-0.00478515625,9.54638671875,-1.220703125,-2.197265625,0.30517578125,0.0,0.1220703125,0.0
14:32:01.226, -0.7177734375,1.2393554687500001,9.646875000000001,-1.6030273437500002,0.06699218750000001,9.5703125,-1.28173828125,-1.220703125,5.615234375,-0.06103515625,0.0,0.0
14:32:01.337, -0.6794921875000001,1.3972656250000002,9.85263671875,-1.6173828125,0.033496093750000004,9.61337890625,0.732421875,-2.50244140625,12.0849609375,0.0,0.1220703125,0.0
14:32:01.448, -0.593359375,1.2872070312500001,9.551171875000001,-1.6173828125,0.057421875000000004,9.54638671875,1.0986328125,-2.50244140625,15.07568359375,-0.06103515625,-0.06103515625,0.0
14:32:01.560, -0.43066406250000006,1.20107421875,9.699511718750001,-1.6365234375000002,0.019140625,9.44111328125,0.30517578125,-1.15966796875,11.1083984375,0.1220703125,0.30517578125,0.0
14:32:01.671, -0.42587890625,1.0479492187500001,9.77607421875,-1.5982421875000001,0.06220703125,9.51767578125,-1.0986328125,-0.9765625,2.3193359375,0.30517578125,0.18310546875,0.0
14:32:01.781, -0.3923828125,1.2393554687500001,9.6564453125,-1.6030273437500002,-0.0095703125,9.48896484375,1.3427734375,-0.3662109375,-4.08935546875,0.06103515625,0.244140625,0.06103515625
14:32:01.892, -0.49765625,1.3350585937500001,9.8478515625,-1.6125976562500002,0.08134765625000001,9.651660156250001,-1.03759765625,1.5869140625,0.54931640625,0.1220703125,0.0,0.06103515625
14:32:02.003, -0.49287109375000004,1.1484375,9.61337890625,-1.6030273437500002,0.1244140625,9.53681640625,1.64794921875,-0.8544921875,-0.06103515625,0.0,0.06103515625,0.06103515625
14:32:02.113, -0.54072265625,1.3589843750000001,9.575097656250001,-1.59345703125,0.057421875000000004,9.58466796875,3.41796875,-1.52587890625,-3.5400390625,-0.1220703125,0.0,-0.18310546875
14:32:02.224, -0.40673828125000006,1.45947265625,9.64208984375,-1.6365234375000002,-0.0095703125,9.579882812500001,2.62451171875,-4.2724609375,-5.0048828125,0.0,0.06103515625,0.1220703125
14:32:02.334, -0.41152343750000003,1.2393554687500001,9.68994140625,-1.6078125,0.08134765625000001,9.56552734375,-2.01416015625,0.0,-5.0048828125,-0.18310546875,-0.06103515625,0.0
14:32:02.445, -0.37324218750000004,1.2919921875,10.0201171875,-1.6125976562500002,0.095703125,9.56552734375,0.18310546875,-3.662109375,-5.79833984375,-0.30517578125,0.0,-0.06103515625
14:32:02.556, -0.31582031250000003,1.40205078125,9.130078125,-1.6508789062500002,0.014355468750000001,9.551171875000001,3.173828125,-0.1220703125,-5.67626953125,0.0,0.06103515625,-0.06103515625
14:32:02.667, -0.440234375,1.5264648437500001,9.981835937500001,-1.59345703125,0.0095703125,9.61337890625,2.01416015625,0.8544921875,-3.5400390625,0.0,0.0,0.0
14:32:02.778, -0.3828125,1.53125,9.460253906250001,-1.6604492187500002,0.09091796875000001,9.622949218750001,0.30517578125,0.1220703125,-1.03759765625,0.0,0.0,0.0
14:32:02.888, -0.37802734375,1.48818359375,9.723437500000001,-1.5982421875000001,0.014355468750000001,9.48896484375,0.9765625,-0.18310546875,0.79345703125,0.0,0.0,0.0
14:32:02.999, -0.33017578125,1.5408203125000002,9.66123046875,-1.6125976562500002,0.033496093750000004,9.551171875000001,-0.67138671875,0.6103515625,0.244140625,0.0,0.0,0.0
14:32:03.109, -0.37324218750000004,1.3972656250000002,9.555957031250001,-1.6173828125,0.0861328125,9.59423828125,-0.79345703125,1.03759765625,0.9765625,0.0,0.0,0.0
14:32:03.219, -0.43066406250000006,1.3972656250000002,9.694726562500001,-1.6173828125,0.052636718750000006,9.589453125,0.30517578125,0.244140625,-0.30517578125,0.0,0.0,0.0
14:32:03.329, -0.42109375000000004,1.4690429687500002,9.6373046875,-1.6173828125,0.02392578125,9.589453125,-0.1220703125,0.8544921875,-0.79345703125,0.0,0.0,0.0
14:32:03.440, -0.49287109375000004,1.45947265625,9.646875000000001,-1.63173828125,0.0478515625,9.589453125,0.06103515625,0.67138671875,0.54931640625,0.0,0.0,0.0
14:32:03.551, -0.45458984375000006,1.44033203125,9.627734375000001,-1.6078125,0.07177734375,9.61337890625,0.48828125,0.8544921875,-0.244140625,0.0,0.0,0.0
14:32:03.662, -0.41152343750000003,1.54560546875,9.60859375,-1.6125976562500002,0.0095703125,9.5416015625,0.9765625,0.67138671875,-0.732421875,0.0,0.0,0.0
14:32:03.774, -0.50244140625,1.5599609375,9.627734375000001,-1.6078125,0.052636718750000006,9.622949218750001,-0.6103515625,2.25830078125,0.30517578125,0.0,0.0,0.0
14:32:03.884, -0.54072265625,1.44990234375,9.7138671875,-1.64130859375,0.0861328125,9.527246093750001,-1.3427734375,0.9765625,1.52587890625,0.0,0.0,0.0
14:32:03.995, -0.55029296875,1.3829101562500001,9.675585937500001,-1.59345703125,0.057421875000000004,9.6373046875,0.9765625,0.30517578125,-0.3662109375,0.0,0.0,0.0
14:32:04.105, -0.5455078125,1.53125,9.704296875,-1.6125976562500002,0.0095703125,9.5607421875,-0.3662109375,-0.30517578125,-0.30517578125,0.0,0.0,0.0
14:32:04.215, -0.5455078125,1.48818359375,9.551171875000001,-1.6700195312500001,0.07177734375,9.6181640625,0.1220703125,0.8544921875,0.54931640625,0.0,0.0,0.0
14:32:04.325, -0.61728515625,1.4642578125,9.699511718750001,-1.5647460937500002,0.057421875000000004,9.53681640625,0.0,0.1220703125,0.0,0.0,0.0,0.0
14:32:04.436, -0.5646484375,1.512109375,9.603808593750001,-1.6604492187500002,0.03828125,9.599023437500001,0.0,-0.1220703125,-0.3662109375,0.0,0.0,0.0
14:32:04.546, -0.55029296875,1.5264648437500001,9.6373046875,-1.6030273437500002,0.057421875000000004,9.60859375,-1.5869140625,1.40380859375,0.79345703125,-0.06103515625,-0.244140625,0.1220703125
14:32:04.657, -0.57421875,1.3876953125,9.6373046875,-1.63173828125,0.09091796875000001,9.603808593750001,-1.64794921875,2.0751953125,2.25830078125,0.0,0.06103515625,0.0
14:32:04.767, -0.6220703125,1.3494140625000002,9.579882812500001,-1.6173828125,0.0478515625,9.61337890625,1.28173828125,1.52587890625,0.18310546875,-0.06103515625,0.0,0.0
14:32:04.878, -0.6220703125,1.4833984375,9.699511718750001,-1.6221679687500001,0.052636718750000006,9.555957031250001,-0.06103515625,2.8076171875,-1.3427734375,0.0,-0.06103515625,0.0
14:32:04.988, -0.7704101562500001,1.4690429687500002,9.60859375,-1.59345703125,0.057421875000000004,9.61337890625,-1.03759765625,2.50244140625,1.5869140625,0.06103515625,0.0,0.0
14:32:05.099, -0.7464843750000001,1.41162109375,9.622949218750001,-1.6556640625,0.028710937500000002,9.622949218750001,-0.79345703125,-0.06103515625,0.06103515625,0.42724609375,0.06103515625,0.0
14:32:05.210, -0.69384765625,1.40205078125,9.589453125,-1.56953125,0.07177734375,9.532031250000001,-0.42724609375,1.28173828125,0.3662109375,-0.18310546875,0.0,0.0
14:32:05.321, -0.7273437500000001,1.44033203125,9.599023437500001,-1.58388671875,0.04306640625,9.599023437500001,0.67138671875,0.48828125,-0.30517578125,0.0,0.18310546875,0.0
14:32:05.433, -0.8230468750000001,1.5168945312500002,9.603808593750001,-1.6221679687500001,0.03828125,9.603808593750001,-0.30517578125,2.197265625,0.0,0.06103515625,-0.1220703125,0.0
14:32:05.542, -0.8661132812500001,1.40205078125,9.66123046875,-1.6460937500000001,0.052636718750000006,9.5416015625,-0.6103515625,0.30517578125,1.46484375,0.0,0.0,0.0
14:32:05.653, -0.80869140625,1.4068359375000001,9.59423828125,-1.6460937500000001,0.07177734375,9.6373046875,0.3662109375,-0.06103515625,-0.1220703125,0.0,0.0,0.0
14:32:05.763, -0.80390625,1.4211914062500002,9.5607421875,-1.6269531250000002,0.02392578125,9.5416015625,-0.06103515625,-0.06103515625,-0.1220703125,0.0,0.0,0.0
14:32:05.873, -0.8182617187500001,1.44033203125,9.60859375,-1.6030273437500002,0.0478515625,9.622949218750001,-0.48828125,-0.18310546875,0.732421875,0.0,0.0,0.0
14:32:05.984, -0.7943359375000001,1.3876953125,9.603808593750001,-1.6030273437500002,0.06699218750000001,9.551171875000001,-0.42724609375,0.0,0.244140625,0.0,0.0,0.0
14:32:06.094, -0.8517578125,1.4546875000000001,9.63251953125,-1.63173828125,0.03828125,9.6181640625,0.18310546875,0.244140625,0.0,0.0,0.0,0.0
14:32:06.205, -0.77998046875,1.4690429687500002,9.60859375,-1.6078125,0.014355468750000001,9.599023437500001,-0.9765625,-0.48828125,0.48828125,0.0,0.0,0.0
14:32:06.315, -0.8230468750000001,1.4211914062500002,9.61337890625,-1.6365234375000002,0.07177734375,9.61337890625,-1.0986328125,0.244140625,1.15966796875,0.0,0.0,0.0
14:32:06.426, -0.87568359375,1.378125,9.651660156250001,-1.6173828125,0.06699218750000001,9.60859375,-0.42724609375,-0.6103515625,0.3662109375,0.0,0.0,0.0
14:32:06.536, -0.784765625,1.378125,9.80478515625,-1.63173828125,0.0478515625,9.603808593750001,-0.54931640625,-2.01416015625,-0.18310546875,0.0,0.0,0.0
14:32:06.646, -0.8134765625000001,1.33984375,9.670800781250001,-1.5743164062500001,0.028710937500000002,9.53681640625,-0.67138671875,-4.08935546875,1.220703125,0.0,0.0,0.0
14:32:06.756, -0.69384765625,1.34462890625,9.46982421875,-1.6173828125,0.0478515625,9.64208984375,-0.244140625,-1.15966796875,-0.79345703125,0.0,0.0,0.0
14:32:06.867, -0.5550781250000001,1.36376953125,9.53681640625,-1.6078125,0.057421875000000004,9.5416015625,0.244140625,0.9765625,-0.1220703125,0.0,0.0,0.0
14:32:06.977, -0.593359375,1.3350585937500001,9.407617187500001,-1.5886718750000002,0.10048828125,9.61337890625,1.3427734375,2.8076171875,-0.1220703125,0.0,0.0,0.0
14:32:07.089, -0.8948242187500001,1.5982421875000001,9.814355468750001,-1.6460937500000001,0.0095703125,9.6564453125,1.46484375,-1.220703125,-1.77001953125,0.0,0.0,0.0
14:32:07.200, -0.7751953125000001,1.6221679687500001,9.5607421875,-1.63173828125,0.00478515625,9.666015625,-1.3427734375,-0.244140625,3.23486328125,0.0,0.0,0.0
14:32:07.311, -0.6747070312500001,1.3015625000000002,9.627734375000001,-1.5791015625000002,0.09091796875000001,9.527246093750001,-2.5634765625,-0.48828125,3.96728515625,0.0,0.0,0.0
14:32:07.423, -0.6555664062500001,1.3589843750000001,9.699511718750001,-1.6508789062500002,0.02392578125,9.5703125,1.40380859375,1.5869140625,-1.46484375,0.0,0.0,0.0
14:32:07.534, -0.784765625,1.5647460937500002,9.5416015625,-1.5791015625000002,-0.00478515625,9.508105468750001,0.9765625,1.0986328125,-1.953125,0.0,0.0,0.0
14:32:07.644, -0.7943359375000001,1.4929687500000002,9.819140625000001,-1.6030273437500002,0.06699218750000001,9.622949218750001,-2.9296875,-0.79345703125,1.28173828125,0.0,0.0,0.0
14:32:07.755, -0.71298828125,1.244140625,9.675585937500001,-1.6604492187500002,0.09091796875000001,9.61337890625,-1.03759765625,-1.15966796875,0.48828125,0.0,0.0,0.0
14:32:07.866, -0.63642578125,1.2537109375000002,9.388476562500001,-1.6939453125000001,0.028710937500000002,9.575097656250001,0.0,-2.8076171875,-3.173828125,-0.3662109375,0.244140625,0.0
14:32:07.976, -0.593359375,1.34462890625,9.503320312500001,-1.5743164062500001,0.095703125,9.622949218750001,-1.46484375,-3.2958984375,1.15966796875,-0.1220703125,-0.1220703125,0.18310546875
14:32:08.088, -0.61728515625,1.26806640625,9.5703125,-1.6030273437500002,0.06220703125,9.5703125,-0.6103515625,-0.79345703125,2.25830078125,0.1220703125,0.1220703125,0.0
14:32:08.198, -0.64599609375,1.33984375,9.718652343750001,-1.6173828125,0.13876953125000002,9.68515625,0.732421875,-3.0517578125,1.3427734375,0.18310546875,-0.732421875,0.0
14:32:08.308, -0.46894531250000004,1.3972656250000002,9.503320312500001,-1.5743164062500001,0.07177734375,9.575097656250001,2.197265625,1.77001953125,0.9765625,-0.1220703125,-0.1220703125,0.0
14:32:08.419, -0.516796875,1.48818359375,9.49853515625,-1.5982421875000001,0.057421875000000004,9.603808593750001,-0.8544921875,-0.54931640625,1.40380859375,-0.1220703125,-0.1220703125,0.0
14:32:08.529, -0.49287109375000004,1.4259765625,9.64208984375,-1.5982421875000001,0.11005859375,9.575097656250001,-1.220703125,1.953125,5.31005859375,0.1220703125,0.18310546875,0.0
14:32:08.640, -0.5646484375,1.2393554687500001,9.59423828125,-1.59345703125,0.052636718750000006,9.579882812500001,1.220703125,2.62451171875,2.3193359375,0.06103515625,0.0,0.0
14:32:08.752, -0.57421875,1.41162109375,9.61337890625,-1.6221679687500001,0.0,9.5607421875,0.1220703125,-0.42724609375,-2.38037109375,-0.06103515625,0.0,0.0
14:32:08.863, -0.59814453125,1.53603515625,9.68037109375,-1.6173828125,0.0478515625,9.670800781250001,0.06103515625,2.0751953125,1.220703125,0.1220703125,0.0,-0.1220703125
14:32:08.974, -0.6412109375,1.2919921875,9.532031250000001,-1.6030273437500002,0.0861328125,9.599023437500001,-0.06103515625,1.220703125,0.3662109375,0.0,0.1220703125,0.0
14:32:09.086, -0.6507812500000001,1.3876953125,9.6564453125,-1.6365234375000002,0.052636718750000006,9.63251953125,1.3427734375,0.1220703125,-2.99072265625,0.18310546875,-0.18310546875,0.0
14:32:09.197, -0.6268554687500001,1.4833984375,9.6373046875,-1.6269531250000002,0.057421875000000004,9.58466796875,0.48828125,-1.708984375,-2.13623046875,-0.18310546875,-0.06103515625,0.0
14:32:09.308, -0.59814453125,1.40205078125,9.527246093750001,-1.6460937500000001,-0.014355468750000001,9.575097656250001,0.6103515625,0.3662109375,-1.40380859375,0.18310546875,-0.06103515625,-0.06103515625
14:32:09.419, -0.66513671875,1.4690429687500002,9.6564453125,-1.5599609375,0.057421875000000004,9.599023437500001,0.8544921875,0.6103515625,-0.3662109375,-0.18310546875,0.0,-0.06103515625
14:32:09.530, -0.63642578125,1.512109375,9.527246093750001,-1.6173828125,0.057421875000000004,9.59423828125,0.9765625,1.28173828125,-1.40380859375,-0.1220703125,0.0,0.06103515625
14:32:09.641, -0.708203125,1.5982421875000001,9.68994140625,-1.6173828125,-0.028710937500000002,9.474609375,0.0,1.40380859375,-1.15966796875,0.244140625,0.0,0.0
14:32:09.751, -0.7034179687500001,1.49775390625,9.64208984375,-1.59345703125,0.06699218750000001,9.60859375,-2.0751953125,0.30517578125,1.0986328125,0.244140625,0.18310546875,0.1220703125
14:32:09.862, -0.7704101562500001,1.29677734375,9.555957031250001,-1.6173828125,0.0478515625,9.575097656250001,0.0,1.52587890625,0.42724609375,-0.06103515625,0.0,-0.06103515625
14:32:09.973, -0.80390625,1.4546875000000001,9.579882812500001,-1.59345703125,0.057421875000000004,9.599023437500001,0.1220703125,2.685546875,-0.6103515625,0.0,-0.1220703125,0.0
14:32:10.083, -0.73212890625,1.34462890625,9.651660156250001,-1.6125976562500002,0.0765625,9.622949218750001,0.67138671875,1.03759765625,0.06103515625,0.0,-0.06103515625,0.0
14:32:10.194, -0.7512695312500001,1.44033203125,9.5224609375,-1.6987304687500002,0.06220703125,9.6181640625,0.8544921875,-0.06103515625,-0.06103515625,0.18310546875,0.1220703125,0.0
14:32:10.304, -0.9474609375,1.49775390625,9.723437500000001,-1.56953125,0.03828125,9.64208984375,0.48828125,1.220703125,-1.15966796875,0.30517578125,-0.06103515625,0.0
14:32:10.415, -0.7177734375,1.4786132812500001,9.5703125,-1.6987304687500002,-0.0095703125,9.388476562500001,-0.732421875,-1.40380859375,0.48828125,0.67138671875,0.30517578125,0.1220703125
14:32:10.527, -0.8230468750000001,1.473828125,9.508105468750001,-1.665234375,0.08134765625000001,9.63251953125,1.15966796875,1.64794921875,0.244140625,-0.1220703125,-0.1220703125,0.06103515625
14:32:10.637, -0.7943359375000001,1.5503906250000001,9.68515625,-1.58388671875,-0.0478515625,9.37890625,-0.1220703125,0.79345703125,0.06103515625,0.244140625,0.732421875,0.0
14:32:10.748, -0.7704101562500001,1.473828125,9.56552734375,-1.0240234375000001,-0.2583984375,8.67548828125,-0.67138671875,1.0986328125,0.9765625,-4.82177734375,0.42724609375,0.1220703125
14:32:10.874, -0.87568359375,1.50732421875,9.551171875000001,-1.63173828125,0.0478515625,9.575097656250001,1.52587890625,2.50244140625,0.79345703125,-0.1220703125,-0.67138671875,0.0
14:32:10.984, -0.8708984375000001,1.6556640625,9.64208984375,-1.6221679687500001,0.0095703125,9.670800781250001,0.6103515625,3.35693359375,-0.1220703125,-0.06103515625,-0.06103515625,0.0
14:32:11.094, -0.8374023437500001,1.7417968750000001,9.45068359375,-1.64130859375,0.03828125,9.5416015625,-2.197265625,4.39453125,4.5166015625,0.0,-0.06103515625,0.06103515625
14:32:11.205, -1.0958007812500001,1.54560546875,9.60859375,-1.5982421875000001,0.11962890625000001,9.6181640625,-4.45556640625,7.26318359375,8.9111328125,0.244140625,0.06103515625,0.0
14:32:11.315, -1.1675781250000001,1.4068359375000001,9.460253906250001,-1.63173828125,0.07177734375,9.5607421875,1.03759765625,3.47900390625,7.87353515625,-0.1220703125,-0.3662109375,0.0
14:32:11.425, -1.3494140625000002,1.5168945312500002,9.77607421875,-1.6604492187500002,0.0,9.589453125,-3.7841796875,3.0517578125,2.44140625,0.42724609375,-0.06103515625,0.0
14:32:11.536, -1.3111328125000001,1.59345703125,9.599023437500001,-1.68916015625,0.153125,9.6373046875,-10.1318359375,-1.52587890625,8.36181640625,-0.3662109375,0.06103515625,0.18310546875
14:32:11.646, -1.3254882812500002,1.3111328125000001,9.68515625,-1.6173828125,0.0765625,9.5703125,-9.521484375,-0.30517578125,14.70947265625,0.06103515625,-0.06103515625,0.0
14:32:11.757, -1.0862304687500002,1.1675781250000001,9.6181640625,-1.6269531250000002,0.0478515625,9.651660156250001,-14.70947265625,-8.97216796875,24.47509765625,-0.30517578125,0.06103515625,0.06103515625
14:32:11.867, -0.8708984375000001,0.34453125,9.54638671875,-1.6221679687500001,0.06699218750000001,9.579882812500001,-6.8359375,-3.7841796875,18.12744140625,0.06103515625,0.1220703125,0.0
14:32:11.978, -0.80390625,0.5790039062500001,9.82392578125,-1.6030273437500002,0.14833984375,9.646875000000001,-9.70458984375,-7.6904296875,7.14111328125,0.30517578125,0.18310546875,0.06103515625
14:32:12.089, -0.5598632812500001,0.49287109375000004,9.622949218750001,-1.6173828125,0.04306640625,9.60859375,-4.45556640625,-10.25390625,5.43212890625,0.0,0.0,0.06103515625
14:32:12.199, -0.33974609375000003,0.36845703125,9.627734375000001,-1.64130859375,0.052636718750000006,9.627734375000001,-4.5166015625,-5.37109375,-0.8544921875,0.0,-0.244140625,0.0
14:32:12.310, -0.248828125,0.3541015625,9.63251953125,-1.56953125,0.08134765625000001,9.527246093750001,1.64794921875,0.9765625,-8.11767578125,0.0,-0.244140625,-0.06103515625
14:32:12.421, -0.3349609375,0.5359375000000001,9.80478515625,-1.6556640625,0.0765625,9.6181640625,3.173828125,0.79345703125,-8.36181640625,0.06103515625,-0.06103515625,0.0
14:32:12.531, -0.41152343750000003,0.69384765625,9.61337890625,-1.6460937500000001,0.09091796875000001,9.5703125,5.43212890625,2.25830078125,-5.7373046875,-0.1220703125,0.0,-0.06103515625
14:32:12.641, -0.5311523437500001,0.8134765625000001,9.80478515625,-1.6269531250000002,0.0478515625,9.64208984375,3.84521484375,3.173828125,-3.5400390625,0.06103515625,-0.244140625,0.06103515625
14:32:12.752, -0.5550781250000001,0.8230468750000001,9.718652343750001,-1.64130859375,0.033496093750000004,9.575097656250001,1.46484375,1.28173828125,-1.64794921875,-0.06103515625,0.1220703125,0.0
14:32:12.863, -0.6077148437500001,0.8374023437500001,9.70908203125,-1.6604492187500002,0.028710937500000002,9.5703125,0.9765625,1.3427734375,-0.9765625,0.06103515625,0.1220703125,0.1220703125
14:32:12.974, -0.6412109375,0.8134765625000001,9.73779296875,-1.59345703125,0.033496093750000004,9.5416015625,0.91552734375,1.3427734375,-1.220703125,0.1220703125,0.0,0.0
14:32:13.084, -0.61728515625,0.7751953125000001,9.670800781250001,-1.63173828125,0.06220703125,9.60859375,0.54931640625,1.3427734375,-1.220703125,0.30517578125,-0.06103515625,-0.1220703125
14:32:13.195, -0.7034179687500001,0.7560546875,9.723437500000001,-1.5982421875000001,0.07177734375,9.512890625,2.197265625,1.220703125,-2.3193359375,-0.1220703125,-0.244140625,0.0
14:32:13.305, -0.669921875,0.90439453125,9.704296875,-1.6748046875000002,0.07177734375,9.70908203125,2.9296875,0.6103515625,-1.953125,-0.79345703125,-0.48828125,0.0
14:32:13.416, -0.708203125,0.95224609375,9.704296875,-1.6173828125,0.0861328125,9.589453125,2.3193359375,0.9765625,-1.953125,0.0,-0.42724609375,0.0
14:32:13.527, -0.7943359375000001,1.0144531250000002,9.68515625,-1.6125976562500002,0.0861328125,9.7138671875,1.220703125,1.64794921875,-1.220703125,1.0986328125,0.0,0.0
14:32:13.638, -0.8421875000000001,0.8661132812500001,9.704296875,-1.5982421875000001,0.06220703125,9.460253906250001,1.953125,-0.91552734375,-3.60107421875,0.0,-0.30517578125,0.06103515625
14:32:13.748, -0.7369140625,1.11494140625,9.723437500000001,-1.6604492187500002,0.019140625,9.5607421875,2.44140625,0.6103515625,-2.3193359375,-0.18310546875,0.0,0.0
14:32:13.859, -0.7560546875,1.0718750000000001,9.68994140625,-1.6556640625,0.13876953125000002,9.78564453125,0.79345703125,-0.30517578125,-1.46484375,0.0,-0.48828125,-0.06103515625
14:32:13.970, -0.7704101562500001,1.00966796875,9.651660156250001,-1.6078125,0.057421875000000004,9.49853515625,1.03759765625,-1.0986328125,-0.18310546875,-0.54931640625,-0.30517578125,-0.06103515625
14:32:14.081, -0.708203125,1.0431640625,9.771289062500001,-1.49775390625,0.0478515625,9.527246093750001,2.685546875,-1.0986328125,-1.52587890625,0.0,-0.54931640625,0.0
14:32:14.192, -0.708203125,1.15322265625,9.579882812500001,-1.58388671875,0.08134765625000001,9.46982421875,0.48828125,0.06103515625,-2.50244140625,0.42724609375,0.48828125,0.0
14:32:14.302, -0.708203125,1.18671875,9.718652343750001,-1.64130859375,0.13876953125000002,9.6373046875,-0.30517578125,1.0986328125,-1.64794921875,0.0,-0.18310546875,-0.18310546875
14:32:14.414, -0.7225585937500001,1.1675781250000001,9.66123046875,-1.6173828125,0.03828125,9.5703125,1.77001953125,0.42724609375,0.06103515625,0.0,0.06103515625,0.06103515625
14:32:14.526, -0.76083984375,1.225,9.666015625,-1.63173828125,0.04306640625,9.64208984375,0.67138671875,0.48828125,-1.5869140625,-0.06103515625,-0.1220703125,0.0
14:32:14.637, -0.7560546875,1.1771484375,9.675585937500001,-1.6125976562500002,0.07177734375,9.551171875000001,-0.79345703125,1.953125,0.18310546875,0.1220703125,0.0,-0.1220703125
14:32:14.748, -0.88046875,1.0623046875000002,9.72822265625,-1.6365234375000002,0.10527343750000001,9.627734375000001,0.0,1.0986328125,0.48828125,0.06103515625,-0.18310546875,0.0
14:32:14.858, -0.8326171875,1.07666015625,9.59423828125,-1.56953125,0.033496093750000004,9.551171875000001,0.0,0.0,-1.15966796875,0.0,0.06103515625,0.0
14:32:14.968, -0.8421875000000001,1.17236328125,9.704296875,-1.64130859375,0.0478515625,9.704296875,0.3662109375,-0.244140625,-0.732421875,0.1220703125,-0.18310546875,-0.06103515625
14:32:15.078, -0.8182617187500001,1.1771484375,9.646875000000001,-1.6365234375000002,0.0478515625,9.512890625,0.3662109375,0.54931640625,0.0,-0.06103515625,-0.06103515625,0.06103515625
14:32:15.188, -0.8134765625000001,1.11494140625,9.599023437500001,-1.6030273437500002,0.019140625,9.63251953125,0.0,0.79345703125,0.244140625,0.18310546875,-0.06103515625,0.0
14:32:15.299, -0.8182617187500001,1.129296875,9.704296875,-1.59345703125,0.0765625,9.5703125,0.48828125,0.3662109375,0.06103515625,0.0,0.0,0.0
14:32:15.410, -0.8182617187500001,1.225,9.699511718750001,-1.6604492187500002,0.014355468750000001,9.59423828125,2.3193359375,1.89208984375,-0.8544921875,0.0,0.0,0.0
14:32:15.521, -0.976171875,1.1962890625,9.589453125,-1.59345703125,0.10527343750000001,9.532031250000001,0.06103515625,0.9765625,-0.91552734375,0.0,0.0,0.0
14:32:15.632, -0.976171875,1.16279296875,9.7521484375,-1.63173828125,0.1435546875,9.6181640625,1.64794921875,-1.77001953125,-0.67138671875,0.0,0.0,0.0
14:32:15.742, -0.80390625,1.3685546875,9.63251953125,-1.6460937500000001,0.04306640625,9.603808593750001,1.40380859375,-0.30517578125,-1.953125,0.0,0.0,0.0
14:32:15.854, -0.80869140625,1.3733398437500002,9.6373046875,-1.6125976562500002,0.052636718750000006,9.54638671875,-0.18310546875,0.06103515625,0.1220703125,0.0,0.0,0.0
14:32:15.964, -0.8230468750000001,1.24892578125,9.58466796875,-1.6173828125,0.1244140625,9.599023437500001,-1.46484375,0.79345703125,1.03759765625,0.0,0.0,0.0
14:32:16.076, -0.90439453125,1.1962890625,9.627734375000001,-1.6269531250000002,0.08134765625000001,9.599023437500001,0.8544921875,0.9765625,-0.1220703125,0.0,0.0,0.0
14:32:16.185, -0.92353515625,1.4307617187500001,9.68515625,-1.5743164062500001,0.0095703125,9.5607421875,-0.42724609375,0.0,-1.15966796875,0.0,0.0,0.0
14:32:16.296, -0.8517578125,1.3685546875,9.651660156250001,-1.6221679687500001,0.02392578125,9.53681640625,-2.197265625,0.244140625,0.67138671875,0.0,0.0,0.0
14:32:16.406, -0.87568359375,1.1819335937500002,9.6373046875,-1.6843750000000002,0.095703125,9.68515625,-0.1220703125,0.91552734375,0.54931640625,0.0,0.18310546875,0.0
14:32:16.516, -0.90439453125,1.15322265625,9.7330078125,-1.6221679687500001,0.06699218750000001,9.56552734375,0.48828125,0.3662109375,-0.9765625,0.1220703125,-0.18310546875,0.0
14:32:16.626, -0.88046875,1.36376953125,9.5416015625,-1.6030273437500002,0.04306640625,9.579882812500001,0.9765625,0.8544921875,-0.79345703125,-0.18310546875,-0.1220703125,0.0
14:32:16.737, -0.9331054687500001,1.320703125,9.63251953125,-1.63173828125,0.028710937500000002,9.551171875000001,-0.6103515625,1.3427734375,0.732421875,0.0,0.0,0.0
14:32:16.848, -0.9570312500000001,1.244140625,9.58466796875,-1.6078125,0.13876953125000002,9.61337890625,-1.28173828125,1.77001953125,0.9765625,0.0,-0.18310546875,-0.06103515625
14:32:16.958, -0.90439453125,1.18671875,9.603808593750001,-1.5982421875000001,0.00478515625,9.5607421875,0.18310546875,-1.15966796875,-1.15966796875,0.244140625,0.1220703125,0.1220703125
14:32:17.068, -0.87568359375,1.30634765625,9.603808593750001,-1.6269531250000002,0.03828125,9.575097656250001,-0.30517578125,1.03759765625,-2.8076171875,0.06103515625,0.06103515625,-0.06103515625
14:32:17.179, -1.0383789062500002,1.3302734375,9.532031250000001,-1.6556640625,0.08134765625000001,9.551171875000001,-0.48828125,4.5166015625,0.732421875,0.06103515625,0.06103515625,0.0
14:32:17.289, -1.21064453125,1.2154296875000001,9.70908203125,-1.64130859375,0.18662109375000002,9.814355468750001,-1.03759765625,1.953125,1.3427734375,-0.1220703125,-0.67138671875,0.0
14:32:17.400, -1.16279296875,1.12451171875,9.61337890625,-1.6460937500000001,0.1244140625,9.61337890625,-1.220703125,0.9765625,0.91552734375,-0.3662109375,-0.1220703125,-0.06103515625
14:32:17.510, -1.1340820312500002,1.17236328125,9.589453125,-1.6508789062500002,0.1244140625,9.68994140625,0.79345703125,0.30517578125,-1.03759765625,0.0,0.1220703125,-0.06103515625
14:32:17.622, -1.20107421875,1.30634765625,9.675585937500001,-1.5791015625000002,0.028710937500000002,9.532031250000001,-0.67138671875,0.6103515625,-2.25830078125,-0.244140625,0.1220703125,0.0
14:32:17.732, -1.1771484375,1.26806640625,9.49375,-1.6460937500000001,0.06699218750000001,9.6181640625,-2.8076171875,2.9296875,4.33349609375,-0.1220703125,-0.48828125,0.0
14:32:17.842, -1.2776367187500002,1.0048828125,9.675585937500001,-1.64130859375,0.13398437500000002,9.5703125,-2.3193359375,2.62451171875,4.5166015625,-0.18310546875,-0.1220703125,0.06103515625
14:32:17.953, -1.2919921875,1.07666015625,9.49375,-1.5743164062500001,0.13398437500000002,9.48896484375,-0.8544921875,2.0751953125,1.5869140625,-0.30517578125,0.42724609375,0.0
14:32:18.063, -1.3829101562500001,1.091015625,9.8095703125,-1.64130859375,0.019140625,9.5416015625,0.18310546875,0.79345703125,-0.42724609375,0.18310546875,0.18310546875,-0.18310546875
14:32:18.174, -1.3494140625000002,1.1771484375,9.48896484375,-1.6269531250000002,0.057421875000000004,9.579882812500001,-1.03759765625,0.91552734375,-1.15966796875,0.42724609375,0.0,0.1220703125
14:32:18.285, -1.44990234375,1.00966796875,9.627734375000001,-1.6173828125,0.11962890625000001,9.5416015625,-2.62451171875,1.89208984375,0.3662109375,-0.1220703125,0.0,-0.06103515625
14:32:18.396, -1.2345703125,1.0383789062500002,9.455468750000001,-1.6508789062500002,0.028710937500000002,9.555957031250001,1.46484375,-2.99072265625,0.1220703125,0.0,0.1220703125,0.0
14:32:18.507, -1.2345703125,1.1436523437500001,9.575097656250001,-1.6125976562500002,-0.00478515625,9.527246093750001,-0.732421875,0.79345703125,-1.5869140625,-0.3662109375,0.0,-0.06103515625
14:32:18.618, -1.2537109375000002,1.1580078125000002,9.622949218750001,-1.5982421875000001,0.0861328125,9.551171875000001,-0.30517578125,0.1220703125,1.708984375,0.06103515625,0.18310546875,0.244140625
14:32:18.729, -1.29677734375,1.02880859375,9.53681640625,-1.63173828125,0.09091796875000001,9.5607421875,-0.91552734375,2.3193359375,2.197265625,0.0,0.0,-0.1220703125
14:32:18.839, -1.3015625000000002,1.1675781250000001,9.551171875000001,-1.59345703125,0.028710937500000002,9.5416015625,1.40380859375,0.42724609375,0.244140625,-0.06103515625,0.06103515625,0.0
14:32:18.950, -1.34462890625,1.225,9.599023437500001,-1.6078125,0.06220703125,9.575097656250001,-2.25830078125,0.79345703125,1.708984375,-0.06103515625,0.0,-0.06103515625
14:32:19.060, -1.3302734375,1.1915039062500001,9.53681640625,-1.58388671875,0.11005859375,9.579882812500001,-0.91552734375,2.44140625,10.55908203125,0.06103515625,0.0,0.0
14:32:19.171, -1.49775390625,1.03359375,9.70908203125,-1.6125976562500002,0.10527343750000001,9.622949218750001,2.8076171875,2.0751953125,1.28173828125,0.0,0.0,0.0
14:32:19.281, -1.4642578125,1.1101562500000002,9.56552734375,-1.6078125,0.033496093750000004,9.589453125,1.15966796875,0.06103515625,-2.3193359375,0.0,0.0,0.0
14:32:19.391, -1.5503906250000001,1.2154296875000001,9.5416015625,-1.6030273437500002,0.0861328125,9.59423828125,-0.30517578125,2.44140625,-0.1220703125,0.0,0.0,0.0
14:32:19.502, -1.6365234375000002,1.2154296875000001,9.704296875,-1.59345703125,0.10048828125,9.512890625,-2.50244140625,-0.91552734375,0.0,0.0,0.0,0.0
14:32:19.613, -1.7657226562500001,1.1819335937500002,9.704296875,-1.665234375,0.0861328125,9.6373046875,-0.42724609375,-1.15966796875,2.74658203125,0.0,0.0,0.0
14:32:19.724, -1.1197265625000001,0.9187500000000001,9.699511718750001,-1.6125976562500002,0.0095703125,9.589453125,-2.25830078125,-7.14111328125,0.30517578125,0.0,0.0,0.0
14:32:19.833, -0.8613281250000001,1.0144531250000002,9.48896484375,-1.6365234375000002,0.10527343750000001,9.575097656250001,-1.953125,-0.42724609375,0.48828125,0.0,0.0,0.0
14:32:19.944, -1.00966796875,0.765625,9.35498046875,-1.6221679687500001,0.1435546875,9.56552734375,2.44140625,-0.48828125,-1.40380859375,0.0,0.0,0.0
14:32:20.054, -1.320703125,1.0431640625,10.005761718750001,-1.6078125,0.019140625,9.599023437500001,6.40869140625,4.8828125,-7.62939453125,0.0,0.0,0.0
14:32:20.164, -1.16279296875,1.3494140625000002,9.455468750000001,-1.63173828125,0.0095703125,9.551171875000001,5.43212890625,3.0517578125,-5.67626953125,0.0,0.0,0.0
14:32:20.275, -1.4211914062500002,1.0479492187500001,9.45068359375,-1.63173828125,0.0765625,9.61337890625,6.591796875,8.7890625,-2.25830078125,0.0,0.0,0.0
14:32:20.385, -1.8614257812500001,1.6173828125,9.364550781250001,-1.63173828125,0.09091796875000001,9.603808593750001,6.4697265625,-0.18310546875,-3.47900390625,0.0,0.0,0.0
14:32:20.496, -1.9571289062500001,1.8375000000000001,9.398046875,-1.6365234375000002,0.0095703125,9.575097656250001,1.03759765625,2.44140625,-4.39453125,0.0,0.0,0.0
14:32:20.606, -1.7896484375000001,1.36376953125,9.771289062500001,-1.6173828125,0.03828125,9.579882812500001,-4.94384765625,3.72314453125,-1.46484375,0.0,0.0,0.0
14:32:20.717, -1.5025390625000001,1.59345703125,9.46982421875,-1.64130859375,0.08134765625000001,9.60859375,-4.69970703125,-5.126953125,2.99072265625,0.0,0.0,0.0
14:32:20.827, -1.4259765625,1.1436523437500001,9.54638671875,-1.6125976562500002,0.11005859375,9.5703125,2.86865234375,2.38037109375,0.30517578125,0.0,0.0,0.0
14:32:20.937, -2.2298828125,2.4021484375,11.154199218750001,-1.5886718750000002,0.014355468750000001,9.555957031250001,8.85009765625,-9.521484375,7.2021484375,0.0,0.0,0.0
14:32:21.047, -1.0814453125,0.8517578125,8.527148437500001,-1.6604492187500002,0.11005859375,9.599023437500001,0.8544921875,-1.03759765625,2.0751953125,0.0,0.0,0.0
14:32:21.157, -0.9378906250000001,1.5886718750000002,9.4458984375,-1.6173828125,0.10048828125,9.61337890625,6.16455078125,5.18798828125,-7.99560546875,0.0,0.0,0.0
14:32:21.267, -1.6604492187500002,1.9427734375,9.9052734375,-1.6125976562500002,0.0861328125,9.56552734375,0.3662109375,3.90625,2.0751953125,0.0,0.0,0.0
14:32:21.377, -1.703515625,0.9139648437500001,9.16357421875,-1.6125976562500002,0.00478515625,9.5607421875,-5.4931640625,-10.009765625,-6.8359375,0.0,0.0,0.0
14:32:21.488, -1.9858398437500002,2.54091796875,9.512890625,-1.63173828125,0.0861328125,9.61337890625,5.18798828125,4.33349609375,-5.67626953125,0.0,0.0,0.0
14:32:21.600, -1.36376953125,1.15322265625,9.58466796875,-1.5886718750000002,0.06699218750000001,9.5224609375,1.953125,-3.23486328125,4.5166015625,0.0,0.0,0.0
14:32:21.710, -2.18203125,1.0958007812500001,8.5654296875,-1.6460937500000001,0.08134765625000001,9.59423828125,5.0048828125,14.2822265625,-16.41845703125,0.0,0.0,0.0
14:32:21.821, -1.320703125,1.53603515625,10.225878906250001,-1.6030273437500002,0.0478515625,9.56552734375,-13.0615234375,-0.30517578125,-19.34814453125,0.0,0.0,0.0
14:32:21.931, -1.4068359375000001,1.244140625,9.8095703125,-1.6365234375000002,0.0765625,9.5607421875,2.197265625,-0.42724609375,-10.1318359375,0.0,0.0,0.0
14:32:22.042, -1.8614257812500001,1.00966796875,9.359765625000001,-1.6078125,0.052636718750000006,9.603808593750001,-6.89697265625,2.44140625,-6.103515625,0.0,0.0,0.0
14:32:22.151, -0.73212890625,1.7657226562500001,9.388476562500001,-1.6125976562500002,0.06220703125,9.61337890625,0.0,4.94384765625,0.06103515625,0.0,0.0,0.0
14:32:22.262, -1.8518554687500002,0.11005859375,9.3501953125,-1.5886718750000002,0.09091796875000001,9.512890625,-24.90234375,-24.0478515625,8.60595703125,0.0,0.0,0.0
14:32:22.372, -0.9426757812500001,0.9809570312500001,10.1158203125,-1.6604492187500002,0.028710937500000002,9.603808593750001,6.89697265625,7.6904296875,-6.16455078125,0.0,0.0,0.0
14:32:22.482, -0.25361328125000004,0.7464843750000001,9.340625000000001,-1.6173828125,0.0861328125,9.579882812500001,-3.11279296875,-3.11279296875,6.65283203125,0.0,0.0,0.0
14:32:22.594, 0.0,0.57421875,9.532031250000001,-1.6508789062500002,0.09091796875000001,9.61337890625,2.01416015625,16.78466796875,0.48828125,0.0,0.0,0.0
14:32:22.705, -1.9619140625000002,1.3015625000000002,9.096582031250001,-1.6221679687500001,0.033496093750000004,9.579882812500001,-4.45556640625,-12.451171875,-1.3427734375,0.0,0.0,0.0
14:32:22.815, -0.5598632812500001,-0.0861328125,9.431542968750001,-1.6125976562500002,0.06699218750000001,9.603808593750001,-11.8408203125,-7.26318359375,6.53076171875,0.0,0.0,0.0
14:32:22.925, -0.43066406250000006,1.44990234375,9.6373046875,-1.49775390625,0.08134765625000001,9.412402343750001,-6.9580078125,24.0478515625,-8.60595703125,-0.67138671875,-0.67138671875,0.0
14:32:23.036, -1.7417968750000001,0.29189453125000003,9.240136718750001,-1.5503906250000001,0.052636718750000006,9.551171875000001,-9.1552734375,21.30126953125,3.662109375,0.0,0.30517578125,0.0
14:32:23.146, -2.36865234375,0.3923828125,10.52255859375,-1.665234375,0.052636718750000006,9.666015625,-12.14599609375,6.591796875,-1.220703125,-0.1220703125,0.0,0.1220703125
14:32:23.257, -2.0671875,0.66513671875,10.010546875000001,-1.6365234375000002,0.02392578125,9.5607421875,-11.90185546875,7.14111328125,-12.39013671875,0.0,-0.06103515625,0.0
14:32:23.367, -1.0000976562500001,-0.17705078125,9.5224609375,-1.5886718750000002,0.10527343750000001,9.59423828125,-21.91162109375,4.8828125,-1.0986328125,0.0,-0.06103515625,0.06103515625
14:32:23.477, -0.80869140625,-0.41152343750000003,8.862109375000001,-1.6508789062500002,0.052636718750000006,9.49853515625,-42.29736328125,-4.150390625,1.64794921875,-0.1220703125,-0.1220703125,0.0
14:32:23.587, -0.97138671875,-1.77529296875,8.421875,-1.5886718750000002,0.03828125,9.60859375,2.685546875,-4.45556640625,-7.4462890625,0.06103515625,-0.06103515625,0.0
14:32:23.698, -1.05751953125,-1.3111328125000001,8.790332031250001,-1.6604492187500002,0.06220703125,9.54638671875,38.63525390625,24.59716796875,-14.892578125,0.06103515625,0.06103515625,0.0
14:32:23.809, -3.119921875,1.00966796875,9.8,-1.63173828125,0.12919921875,9.603808593750001,0.0,15.31982421875,-7.32421875,0.0,-0.244140625,0.0
14:32:23.919, -1.9954101562500002,-0.35888671875,9.87177734375,-1.5982421875000001,0.057421875000000004,9.575097656250001,0.3662109375,-1.15966796875,-5.0048828125,0.0,0.1220703125,0.06103515625
14:32:24.030, -1.8470703125,-0.85654296875,9.244921875000001,-1.63173828125,0.09091796875000001,9.627734375000001,-4.638671875,7.38525390625,-5.9814453125,0.0,0.0,0.0
14:32:24.140, -1.8518554687500002,-0.41152343750000003,9.35498046875,-1.6173828125,0.0765625,9.5703125,12.0849609375,13.24462890625,-8.056640625,0.0,0.0,0.0
14:32:24.250, -3.1294921875000004,0.33974609375000003,8.618066406250001,-1.6365234375000002,0.09091796875000001,9.599023437500001,-10.43701171875,5.18798828125,-14.34326171875,0.0,0.0,0.0
14:32:24.361, -4.0960937500000005,-0.47373046875,9.220996093750001,-1.5982421875000001,0.03828125,9.5607421875,5.55419921875,16.6015625,-10.986328125,0.0,0.0,0.0
14:32:24.472, -2.7418945312500003,-0.38759765625000003,9.42197265625,-1.6269531250000002,0.07177734375,9.603808593750001,-10.31494140625,12.451171875,-31.18896484375,0.0,0.0,0.0
14:32:24.583, -3.3591796875,-1.92841796875,8.134765625,-1.58388671875,0.0861328125,9.54638671875,-5.2490234375,6.16455078125,-13.3056640625,0.0,0.0,0.0
14:32:24.694, -3.4692382812500004,-1.8662109375000002,8.378808593750001,-1.64130859375,0.052636718750000006,9.622949218750001,17.88330078125,13.427734375,10.498046875,0.0,0.0,0.0
14:32:24.803, -4.057812500000001,-0.6125,8.929101562500001,-1.5743164062500001,0.06220703125,9.54638671875,-5.126953125,-13.3056640625,19.53125,0.0,0.0,0.0
14:32:24.913, -4.201367187500001,-0.2201171875,9.0630859375,-1.6269531250000002,0.057421875000000004,9.551171875000001,9.70458984375,-17.7001953125,5.2490234375,0.0,0.0,0.0
14:32:25.024, -3.5505859375,0.23925781250000003,10.0201171875,-1.64130859375,0.057421875000000004,9.59423828125,10.8642578125,-21.8505859375,-10.7421875,0.0,0.0,0.0
14:32:25.135, -3.3017578125000004,-0.02392578125,9.240136718750001,-1.5886718750000002,0.0478515625,9.58466796875,-1.220703125,-17.08984375,-14.58740234375,0.0,0.0,0.0
14:32:25.246, -2.15810546875,0.30625,10.005761718750001,-1.6365234375000002,0.09091796875000001,9.5607421875,0.67138671875,-1.953125,-22.88818359375,0.0,0.0,0.0
14:32:25.356, -2.04326171875,-0.37324218750000004,9.747363281250001,-1.5982421875000001,0.02392578125,9.622949218750001,-5.06591796875,1.40380859375,-13.48876953125,0.0,0.0,0.0
14:32:25.466, -2.3112304687500003,-0.8421875000000001,9.321484375,-1.6604492187500002,0.08134765625000001,9.589453125,8.36181640625,-2.38037109375,-15.7470703125,0.0,0.0,0.0
14:32:25.577, -3.521875,-0.54072265625,8.19697265625,-1.6030273437500002,0.03828125,9.599023437500001,14.6484375,1.89208984375,-27.587890625,0.0,0.0,0.0
14:32:25.689, -0.7560546875,0.73212890625,9.622949218750001,-1.59345703125,0.06220703125,9.589453125,8.30078125,3.84521484375,-10.498046875,0.0,0.0,0.0
14:32:25.799, -2.18203125,-0.19619140625,9.91962890625,-1.58388671875,0.04306640625,9.58466796875,-34.1796875,39.36767578125,-2.74658203125,0.0,0.0,0.0
14:32:25.909, -1.5791015625000002,0.153125,8.814257812500001,-1.6221679687500001,0.07177734375,9.627734375000001,6.9580078125,30.57861328125,-28.01513671875,0.0,0.0,0.0
14:32:26.020, -3.28740234375,0.5359375000000001,8.857324218750001,-1.6460937500000001,0.03828125,9.555957031250001,6.77490234375,17.15087890625,-14.58740234375,0.0,0.0,0.0
14:32:26.130, -4.6942382812500005,-0.27275390625,9.0822265625,-1.6604492187500002,0.0861328125,9.66123046875,11.23046875,-0.79345703125,-0.1220703125,0.0,0.0,0.0
14:32:26.240, -2.6892578125,-0.59814453125,9.244921875000001,-1.6078125,0.08134765625000001,9.551171875000001,26.30615234375,-39.55078125,-1.89208984375,0.0,0.0,0.0
14:32:26.351, -3.6032226562500003,-0.44501953125000004,9.02001953125,-1.6221679687500001,0.03828125,9.61337890625,17.4560546875,-29.78515625,-22.64404296875,0.0,0.0,0.0
14:32:26.461, -2.70361328125,1.3494140625000002,8.622851562500001,-1.6269531250000002,0.06220703125,9.551171875000001,28.6865234375,-18.98193359375,-20.44677734375,0.0,0.0,0.0
14:32:26.572, -0.028710937500000002,0.52158203125,8.6994140625,-1.6221679687500001,0.07177734375,9.59423828125,-4.39453125,7.9345703125,-31.494140625,0.0,0.0,0.0
14:32:26.683, -0.5311523437500001,0.765625,9.024804687500001,-1.6173828125,0.07177734375,9.532031250000001,-10.6201171875,14.58740234375,-12.02392578125,0.0,0.0,0.0
14:32:26.793, -3.8424804687500003,-1.4786132812500001,8.862109375000001,-1.6556640625,0.07177734375,9.6181640625,-15.380859375,4.638671875,24.47509765625,0.0,0.0,0.0
14:32:26.903, -3.01943359375,0.18183593750000002,10.71875,-1.6030273437500002,0.0765625,9.60859375,-6.16455078125,9.94873046875,-21.240234375,0.0,0.0,0.0
14:32:27.013, -1.7513671875,0.49287109375000004,9.78564453125,-1.6221679687500001,0.095703125,9.6181640625,-36.376953125,-7.87353515625,-23.98681640625,0.0,0.0,0.0
14:32:27.124, -2.99072265625,-0.8948242187500001,9.7138671875,-1.5886718750000002,0.07177734375,9.5703125,51.20849609375,10.3759765625,-17.578125,0.0,0.0,0.0
14:32:27.235, -1.92841796875,-1.1340820312500002,9.364550781250001,-1.6078125,0.06220703125,9.64208984375,-3.90625,-0.06103515625,15.07568359375,0.0,0.0,0.0
14:32:27.346, -2.5552734375000004,-0.8326171875,7.718457031250001,-1.6078125,0.07177734375,9.56552734375,-33.63037109375,28.86962890625,27.64892578125,0.0,0.0,0.0
14:32:27.458, -3.7754882812500004,-0.5120117187500001,10.584765625000001,-1.6460937500000001,0.052636718750000006,9.60859375,16.66259765625,24.0478515625,-53.64990234375,0.0,0.0,0.0
14:32:27.568, -3.4596679687500003,2.1724609375000004,9.412402343750001,-1.6173828125,0.09091796875000001,9.58466796875,-7.38525390625,-11.29150390625,-15.2587890625,0.0,0.0,0.0
14:32:27.680, -3.1342773437500004,-0.90439453125,10.0966796875,-1.6508789062500002,0.0861328125,9.599023437500001,13.61083984375,15.2587890625,45.34912109375,0.0,0.0,0.0
14:32:27.790, -3.8185546875000003,2.66533203125,10.49384765625,-1.5886718750000002,0.10048828125,9.599023437500001,-11.962890625,-14.6484375,-48.52294921875,0.0,0.0,0.0
14:32:27.901, -2.8041015625,-2.51220703125,7.766308593750001,-1.6269531250000002,0.02392578125,9.5416015625,10.68115234375,-25.5126953125,8.97216796875,0.0,0.0,0.0
14:32:28.012, -2.6749023437500004,3.0146484375,8.81904296875,-1.6125976562500002,0.07177734375,9.60859375,20.3857421875,15.0146484375,-2.62451171875,0.0,0.0,0.0
14:32:28.123, -2.545703125,1.95234375,9.11572265625,-1.5886718750000002,0.08134765625000001,9.551171875000001,-8.1787109375,-20.44677734375,-6.53076171875,0.0,0.0,0.0
14:32:28.234, -5.2206054687500005,-4.18701171875,10.4794921875,-1.6508789062500002,0.04306640625,9.61337890625,17.2119140625,-16.4794921875,7.01904296875,0.0,0.0,0.0
14:32:28.344, -2.7897460937500003,2.2203125000000004,9.45068359375,-1.6221679687500001,0.0478515625,9.56552734375,-19.95849609375,-45.34912109375,-23.74267578125,0.0,0.0,0.0
14:32:28.455, -2.7179687500000003,2.2155273437500003,10.52734375,-1.6173828125,0.06699218750000001,9.60859375,-4.39453125,-41.68701171875,-36.2548828125,0.0,0.0,0.0
14:32:28.565, -3.2539062500000004,0.708203125,8.240039062500001,-1.64130859375,0.052636718750000006,9.551171875000001,-13.671875,37.53662109375,4.82177734375,0.0,0.0,0.0
14:32:28.676, -2.22509765625,-0.153125,11.14462890625,-1.6460937500000001,0.09091796875000001,9.63251953125,-0.8544921875,-2.99072265625,-1.953125,0.0,0.0,0.0
14:32:28.787, -1.9714843750000002,0.4498046875,9.90048828125,-1.5886718750000002,0.052636718750000006,9.54638671875,6.34765625,11.962890625,29.23583984375,0.0,0.0,0.0
14:32:28.898, -2.5026367187500003,0.287109375,9.460253906250001,-1.6269531250000002,0.06220703125,9.589453125,-12.939453125,6.28662109375,5.0048828125,0.0,0.0,0.0
14:32:29.009, -2.61748046875,-0.3541015625,11.111132812500001,-1.58388671875,0.0765625,9.603808593750001,3.7841796875,-1.52587890625,-29.96826171875,0.0,0.0,0.0
14:32:29.119, -3.3496093750000004,0.8517578125,10.59912109375,-1.6556640625,0.0765625,9.61337890625,4.39453125,-27.77099609375,-15.93017578125,0.0,0.0,0.0
14:32:29.230, -3.7084960937500004,-0.8182617187500001,9.914843750000001,-1.6173828125,0.04306640625,9.5607421875,-22.216796875,11.71875,10.009765625,0.0,0.0,0.0
14:32:29.340, -2.15810546875,0.9857421875000001,9.790429687500001,-1.63173828125,0.0861328125,9.61337890625,10.986328125,1.15966796875,13.5498046875,0.0,0.0,0.0
14:32:29.451, -2.56962890625,1.6269531250000002,9.1587890625,-1.6269531250000002,0.057421875000000004,9.6181640625,11.474609375,0.06103515625,28.80859375,0.0,0.0,0.0
14:32:29.563, -3.7611328125,1.894921875,8.881250000000001,-1.6269531250000002,0.0478515625,9.579882812500001,-20.263671875,20.20263671875,-4.69970703125,0.0,0.0,0.0
14:32:29.675, -2.3160156250000004,2.0528320312500004,9.5224609375,-1.5886718750000002,0.052636718750000006,9.5607421875,10.55908203125,20.56884765625,-7.50732421875,0.0,0.0,0.0
14:32:29.785, -3.0098632812500004,-1.73701171875,9.70908203125,-1.6269531250000002,0.04306640625,9.58466796875,-7.26318359375,11.90185546875,-4.21142578125,0.0,0.0,0.0
14:32:29.896, -2.4069335937500003,0.85654296875,9.32626953125,-1.6078125,0.10048828125,9.63251953125,1.0986328125,-23.98681640625,-12.87841796875,0.0,0.0,0.0
14:32:30.007, -3.0529296875000003,0.033496093750000004,8.517578125,-1.6269531250000002,0.052636718750000006,9.5703125,31.06689453125,3.41796875,-10.7421875,0.0,0.0,0.0
14:32:30.118, -2.47392578125,1.225,9.4171875,-1.64130859375,0.11005859375,9.58466796875,14.6484375,0.6103515625,0.1220703125,0.0,0.0,0.0
14:32:30.228, -2.06240234375,1.3494140625000002,9.5224609375,-1.6030273437500002,0.0478515625,9.555957031250001,5.92041015625,-15.9912109375,-4.638671875,0.0,0.0,0.0
14:32:30.339, -2.1341796875,0.25361328125000004,9.0439453125,-1.6078125,0.057421875000000004,9.5703125,-6.04248046875,-14.46533203125,-13.3056640625,0.0,0.0,0.0
14:32:30.450, -2.0719726562500003,0.37324218750000004,9.42197265625,-1.6269531250000002,0.03828125,9.575097656250001,-3.11279296875,-2.44140625,5.31005859375,0.0,0.0,0.0
14:32:30.561, -1.8279296875000002,1.53603515625,9.316699218750001,-1.6460937500000001,0.0861328125,9.622949218750001,-2.38037109375,-4.0283203125,4.94384765625,0.0,0.0,0.0
14:32:30.671, -1.8901367187500002,0.20576171875000002,8.97216796875,-1.6125976562500002,0.03828125,9.575097656250001,-3.41796875,-3.5400390625,17.822265625,0.0,0.0,0.0
14:32:30.782, -2.20595703125,0.57421875,8.94345703125,-1.64130859375,0.0478515625,9.627734375000001,11.71875,-3.662109375,0.48828125,0.0,0.0,0.0
14:32:30.893, -1.8662109375000002,1.8757812500000002,9.42197265625,-1.59345703125,0.09091796875000001,9.5607421875,0.67138671875,-7.6904296875,19.04296875,0.0,0.0,0.0
14:32:31.003, -1.56953125,0.9283203125,9.5416015625,-1.6269531250000002,0.052636718750000006,9.6181640625,4.5166015625,-6.7138671875,1.953125,0.0,0.0,0.0
14:32:31.114, -1.59345703125,1.2154296875000001,9.6373046875,-1.5791015625000002,0.06220703125,9.5416015625,9.09423828125,0.30517578125,1.15966796875,0.0,0.0,0.0
14:32:31.226, -1.24892578125,0.9905273437500001,9.527246093750001,-1.6460937500000001,0.07177734375,9.627734375000001,4.150390625,-18.37158203125,6.7138671875,0.0,0.0,0.0
14:32:31.337, -0.7991210937500001,1.7561523437500002,8.46015625,-1.6125976562500002,0.06220703125,9.603808593750001,-18.06640625,-8.48388671875,12.14599609375,0.0,0.0,0.0
14:32:31.448, -0.39716796875000004,0.69384765625,9.4171875,-1.6125976562500002,0.0478515625,9.56552734375,6.40869140625,15.44189453125,1.708984375,0.0,0.0,0.0
14:32:31.559, -1.1962890625,2.15810546875,9.91962890625,-1.6221679687500001,0.0861328125,9.579882812500001,8.36181640625,20.32470703125,-2.62451171875,0.0,0.0,0.0
14:32:31.670, -1.5503906250000001,-0.1435546875,11.297753906250001,-1.6365234375000002,0.06220703125,9.59423828125,1.0986328125,-6.53076171875,-3.72314453125,0.0,0.0,0.0
14:32:31.781, -1.15322265625,1.45947265625,9.99619140625,-1.5982421875000001,0.07177734375,9.56552734375,-15.9912109375,-21.54541015625,13.0615234375,0.0,0.0,0.0
14:32:31.891, -0.7895507812500001,0.8900390625000001,8.91474609375,-1.6365234375000002,0.057421875000000004,9.58466796875,3.5400390625,-4.08935546875,-0.48828125,0.0,0.0,0.0
14:32:32.001, -1.33984375,1.0383789062500002,9.5416015625,-1.6125976562500002,0.10048828125,9.627734375000001,-5.2490234375,5.859375,14.404296875,0.0,0.0,0.0
14:32:32.111, -1.53125,1.6748046875000002,9.68037109375,-1.6365234375000002,0.057421875000000004,9.551171875000001,7.568359375,14.22119140625,15.93017578125,0.0,0.0,0.0
14:32:32.222, -0.9905273437500001,2.1533203125,9.6564453125,-1.5982421875000001,0.095703125,9.59423828125,-0.6103515625,3.60107421875,-19.1650390625,0.0,0.0,0.0
14:32:32.334, -0.76083984375,2.5026367187500003,9.0822265625,-1.6173828125,0.052636718750000006,9.575097656250001,-6.16455078125,14.58740234375,-5.92041015625,0.0,0.0,0.0
14:32:32.445, -1.9475585937500002,0.7991210937500001,10.0392578125,-1.6221679687500001,0.09091796875000001,9.64208984375,5.79833984375,19.287109375,-5.18798828125,0.0,0.0,0.0
14:32:32.556, -1.3494140625000002,2.0576171875,10.278515625,-1.58388671875,0.0765625,9.54638671875,1.220703125,12.39013671875,-9.82666015625,0.0,0.0,0.0
14:32:32.682, -2.0671875,1.1675781250000001,8.91953125,-1.64130859375,0.06220703125,9.59423828125,-7.50732421875,0.3662109375,-4.39453125,0.0,0.0,0.0
14:32:32.793, -1.54560546875,0.7369140625,9.599023437500001,-1.6365234375000002,0.07177734375,9.5703125,-9.8876953125,-2.86865234375,-12.6953125,0.0,0.0,0.0
14:32:32.904, -1.378125,0.8613281250000001,9.034375,-1.6221679687500001,0.06699218750000001,9.579882812500001,-16.6015625,6.2255859375,-15.31982421875,0.0,0.0,0.0
14:32:33.015, -2.64140625,0.5837890625000001,9.64208984375,-1.6125976562500002,0.06220703125,9.5416015625,-27.099609375,-10.55908203125,15.5029296875,0.0,0.0,0.0
14:32:33.126, -3.97646484375,1.3685546875,9.21142578125,-1.63173828125,0.07177734375,9.64208984375,2.13623046875,35.0341796875,-5.615234375,0.0,0.0,0.0
14:32:33.236, 0.27275390625,0.15791015625000002,10.7666015625,-1.6221679687500001,0.04306640625,9.56552734375,-14.5263671875,9.70458984375,-45.654296875,0.0,0.0,0.0
14:32:33.346, -2.01455078125,1.07666015625,9.412402343750001,-1.64130859375,0.057421875000000004,9.59423828125,-6.65283203125,32.77587890625,3.90625,0.0,0.0,0.0
14:32:33.457, -3.4596679687500003,-1.378125,9.40283203125,-1.6125976562500002,0.0478515625,9.5703125,-10.498046875,19.8974609375,22.76611328125,0.0,0.0,0.0
14:32:33.568, -3.7994140625000004,-0.7704101562500001,7.560546875000001,-1.6173828125,0.0478515625,9.6181640625,-7.62939453125,-5.9814453125,2.25830078125,0.0,0.0,0.0
14:32:33.679, -3.4453125000000004,-0.12919921875,9.321484375,-1.63173828125,0.08134765625000001,9.603808593750001,-38.14697265625,-14.5263671875,8.72802734375,0.0,0.0,0.0
14:32:33.790, -3.33046875,-1.2776367187500002,9.005664062500001,-1.6173828125,0.028710937500000002,9.579882812500001,-24.90234375,-13.36669921875,32.470703125,0.0,0.0,0.0
14:32:33.900, -2.6701171875000003,-2.3734375,9.22578125,-1.6365234375000002,0.095703125,9.627734375000001,-24.47509765625,-9.82666015625,31.005859375,0.0,0.0,0.0
14:32:34.010, -2.7275390625,-1.4546875000000001,8.881250000000001,-1.63173828125,0.019140625,9.58466796875,-4.21142578125,11.3525390625,3.72314453125,0.0,0.0,0.0
14:32:34.121, -3.5553710937500003,-2.84716796875,9.503320312500001,-1.6125976562500002,0.0861328125,9.622949218750001,-18.37158203125,15.07568359375,4.69970703125,0.0,0.0,0.0
14:32:34.231, -3.1869140625,-2.7706054687500004,8.94345703125,-1.6173828125,0.04306640625,9.54638671875,3.47900390625,11.29150390625,-19.04296875,0.0,0.0,0.0
14:32:34.342, -3.14384765625,-0.5359375000000001,8.953027343750001,-1.6508789062500002,0.057421875000000004,9.63251953125,-24.47509765625,1.5869140625,8.1787109375,0.0,0.0,0.0
14:32:34.452, -4.153515625000001,-2.54091796875,8.259179687500001,-1.58388671875,0.0765625,9.551171875000001,-16.05224609375,-8.23974609375,19.04296875,0.0,0.0,0.0
14:32:34.563, -4.3736328125,-0.8517578125,8.694628906250001,-1.6221679687500001,0.052636718750000006,9.61337890625,-26.42822265625,5.2490234375,8.36181640625,0.0,0.0,0.0
14:32:34.674, -3.38310546875,-0.7704101562500001,6.8714843750000005,-1.6508789062500002,0.019140625,9.54638671875,-11.5966796875,23.49853515625,8.6669921875,0.0,0.0,0.0
14:32:34.786, -3.1007812500000003,-3.0098632812500004,8.25439453125,-1.6125976562500002,0.052636718750000006,9.589453125,-24.59716796875,7.75146484375,7.75146484375,0.0,0.0,0.0
14:32:34.897, -5.3402343750000005,-2.469140625,9.23056640625,-1.5982421875000001,0.0478515625,9.555957031250001,-3.23486328125,-7.080078125,-28.6865234375,0.0,0.0,0.0
14:32:35.008, -5.665625,-6.737500000000001,7.9481445312500005,-1.6508789062500002,0.052636718750000006,9.622949218750001,-5.615234375,-0.1220703125,-31.55517578125,0.0,0.0,0.0
14:32:35.117, -3.3878906250000003,-3.6462890625,8.89560546875,-1.6030273437500002,0.052636718750000006,9.54638671875,-39.36767578125,-17.08984375,-20.751953125,0.0,0.0,0.0
14:32:35.228, -2.8998046875,-4.71337890625,7.263867187500001,-1.6556640625,0.06220703125,9.575097656250001,-7.99560546875,-19.53125,3.60107421875,0.0,0.0,0.0
14:32:35.339, -3.5697265625,-5.29716796875,6.842773437500001,-1.6365234375000002,0.057421875000000004,9.589453125,-3.7841796875,-12.20703125,50.84228515625,0.0,0.0,0.0
14:32:35.449, -3.2204101562500003,-3.8233398437500004,7.550976562500001,-1.6125976562500002,0.028710937500000002,9.6373046875,15.625,-5.55419921875,51.1474609375,0.0,0.0,0.0
14:32:35.559, -3.7802734375000004,-2.82802734375,7.9481445312500005,-1.56953125,0.0765625,9.54638671875,12.0849609375,-19.04296875,37.17041015625,0.0,-0.18310546875,0.0
14:32:35.670, -3.1869140625,-3.5984375,9.1587890625,-1.64130859375,0.11484375000000001,9.61337890625,17.39501953125,-53.03955078125,17.08984375,0.0,0.0,0.0
14:32:35.781, -2.30166015625,-2.68447265625,8.900390625,-1.6365234375000002,0.033496093750000004,9.599023437500001,24.7802734375,-61.4013671875,-13.12255859375,0.0,-0.30517578125,0.0
14:32:35.891, 0.42109375000000004,-1.2345703125,8.58935546875,-1.6173828125,0.019140625,9.555957031250001,-0.244140625,-36.43798828125,5.615234375,0.06103515625,0.0,-0.06103515625
14:32:36.001, -0.37802734375,-1.5886718750000002,9.80478515625,-1.6269531250000002,0.10527343750000001,9.627734375000001,9.6435546875,2.86865234375,2.38037109375,0.06103515625,-0.18310546875,0.0
14:32:36.112, -1.00966796875,-1.35419921875,9.484179687500001,-1.6221679687500001,0.11005859375,9.5224609375,-8.6669921875,21.66748046875,-15.0146484375,0.06103515625,0.06103515625,-0.244140625
14:32:36.223, -2.75625,-1.79921875,10.747460937500001,-1.6508789062500002,0.04306640625,9.64208984375,-18.798828125,39.73388671875,-20.751953125,0.0,-0.1220703125,0.0
14:32:36.333, -2.0767578125000004,-2.1198242187500003,9.9244140625,-1.6125976562500002,0.033496093750000004,9.512890625,-18.85986328125,7.75146484375,-7.26318359375,-0.1220703125,0.1220703125,0.0
14:32:36.443, -1.9236328125000002,-3.97646484375,9.120507812500001,-1.6269531250000002,0.1244140625,9.627734375000001,-13.73291015625,-16.54052734375,-7.14111328125,0.0,-0.06103515625,0.0
14:32:36.553, -1.6987304687500002,-3.1964843750000003,8.62763671875,-1.6125976562500002,0.04306640625,9.532031250000001,-8.11767578125,-15.31982421875,4.2724609375,0.0,0.0,0.0
14:32:36.664, -1.5599609375,-4.421484375,8.886035156250001,-1.6078125,-0.019140625,9.627734375000001,-3.5400390625,11.90185546875,-12.14599609375,0.0,0.0,0.0
14:32:36.775, -0.9905273437500001,-3.885546875,8.8046875,-1.5743164062500001,0.12919921875,9.54638671875,-8.72802734375,33.5693359375,-31.005859375,0.0,0.0,0.0
14:32:36.885, -2.3590820312500003,-4.52197265625,8.2974609375,-1.6269531250000002,0.13398437500000002,9.59423828125,-14.22119140625,29.84619140625,-16.05224609375,0.0,0.0,0.0
14:32:36.996, -2.1246093750000004,-5.469433593750001,8.07734375,-1.6269531250000002,-0.014355468750000001,9.527246093750001,1.0986328125,29.35791015625,-24.0478515625,0.0,0.0,0.0
14:32:37.107, -4.033886718750001,-4.32578125,7.598828125000001,-1.6269531250000002,0.0478515625,9.579882812500001,-2.38037109375,23.25439453125,-16.2353515625,0.0,0.0,0.0
14:32:37.218, -3.0529296875000003,-4.09130859375,8.670703125000001,-1.5791015625000002,0.13398437500000002,9.603808593750001,8.30078125,-11.962890625,-21.97265625,0.0,0.0,0.0
14:32:37.328, -1.17236328125,-2.9620117187500004,9.292773437500001,-1.6173828125,0.057421875000000004,9.5607421875,-33.203125,-15.93017578125,-4.5166015625,0.0,0.0,0.0
14:32:37.439, -1.8470703125,-4.7947265625,8.07734375,-1.6365234375000002,-0.02392578125,9.56552734375,4.94384765625,4.45556640625,-11.5966796875,0.0,0.0,0.0
14:32:37.549, -1.10537109375,-5.10576171875,8.30224609375,-1.6508789062500002,0.0478515625,9.60859375,-5.43212890625,5.18798828125,-9.33837890625,0.0,0.0,0.0
14:32:37.660, -1.56953125,-6.08671875,7.97685546875,-1.59345703125,0.153125,9.5607421875,-9.46044921875,5.37109375,11.41357421875,0.0,0.0,0.0
14:32:37.770, -2.6461914062500003,-5.1296875,8.10126953125,-1.63173828125,0.00478515625,9.5703125,2.62451171875,13.671875,-3.60107421875,0.0,0.0,0.0
14:32:37.881, -1.8087890625,-5.033984375,7.096386718750001,-1.63173828125,0.052636718750000006,9.627734375000001,-12.6953125,30.70068359375,-25.634765625,0.0,0.0,0.0
14:32:37.992, -3.6462890625,-4.67509765625,6.9671875000000005,-1.6460937500000001,0.0765625,9.56552734375,-6.04248046875,25.634765625,0.42724609375,0.0,0.0,0.0
14:32:38.103, -4.038671875,-6.4408203125000005,6.952832031250001,-1.6173828125,0.10048828125,9.575097656250001,6.89697265625,31.3720703125,0.18310546875,0.0,0.0,0.0
14:32:38.213, -2.8423828125000004,-6.58916015625,7.65146484375,-1.6030273437500002,0.0095703125,9.53681640625,0.1220703125,9.765625,-5.9814453125,0.0,0.0,0.0
14:32:38.324, -3.81376953125,-4.8617187500000005,8.4123046875,-1.6460937500000001,0.09091796875000001,9.651660156250001,28.74755859375,7.75146484375,11.5966796875,0.0,0.0,0.0
14:32:38.435, -3.4453125000000004,-5.3115234375,7.68974609375,-1.63173828125,0.0478515625,9.5703125,32.77587890625,5.06591796875,38.51318359375,0.0,0.0,0.0
14:32:38.545, -4.71337890625,-4.7181640625000005,7.0150390625000005,-1.6221679687500001,0.0861328125,9.60859375,56.70166015625,25.390625,41.748046875,0.0,0.0,0.0
14:32:38.656, -3.7611328125,-2.660546875,7.4361328125,-1.6078125,0.09091796875000001,9.59423828125,47.2412109375,21.30126953125,37.7197265625,0.0,0.0,0.0
14:32:38.766, -4.0291015625,-1.72744140625,6.59873046875,-1.5982421875000001,0.057421875000000004,9.599023437500001,44.921875,-1.03759765625,22.4609375,0.0,0.0,0.0
14:32:38.877, -5.2684570312500005,0.44501953125000004,8.26875,-1.6173828125,0.014355468750000001,9.5416015625,11.53564453125,-12.5732421875,51.81884765625,0.0,0.0,0.0
14:32:38.988, -5.30673828125,-1.4833984375,7.8763671875000005,-1.6173828125,0.11005859375,9.63251953125,1.28173828125,-2.50244140625,18.73779296875,0.0,0.0,0.0
14:32:39.098, -5.06748046875,-0.052636718750000006,8.646777343750001,-1.5886718750000002,0.1244140625,9.5224609375,8.36181640625,-6.89697265625,-1.89208984375,0.0,0.0,0.0
14:32:39.208, -5.4646484375,0.44501953125000004,9.5416015625,-1.6604492187500002,0.033496093750000004,9.627734375000001,-8.85009765625,-31.73828125,22.39990234375,0.0,0.0,0.0
14:32:39.319, -2.201171875,-0.80869140625,9.206640625,-1.5982421875000001,0.11484375000000001,9.63251953125,13.97705078125,34.423828125,-24.4140625,0.0,-0.1220703125,-0.06103515625
14:32:39.430, -4.49326171875,0.12919921875,8.08212890625,-1.59345703125,0.153125,9.599023437500001,8.4228515625,16.05224609375,1.40380859375,0.0,0.06103515625,-0.06103515625
14:32:39.541, -4.5746093750000005,-1.225,8.134765625,-1.6269531250000002,0.014355468750000001,9.5703125,15.380859375,5.67626953125,-14.404296875,-0.244140625,0.0,0.0
14:32:39.652, -5.7134765625,1.1771484375,9.70908203125,-1.6556640625,-0.04306640625,9.670800781250001,15.2587890625,15.13671875,-23.86474609375,0.06103515625,-0.06103515625,0.0
14:32:39.763, -5.06748046875,0.59814453125,9.37890625,-1.6078125,0.153125,9.575097656250001,10.009765625,23.193359375,-10.3759765625,-0.18310546875,0.0,0.0
14:32:39.873, -5.4646484375,-0.31582031250000003,6.330761718750001,-1.64130859375,0.09091796875000001,9.61337890625,30.6396484375,20.8740234375,-21.05712890625,-0.06103515625,0.0,0.0
14:32:39.985, -7.823730468750001,-0.18183593750000002,9.21142578125,-1.5982421875000001,-0.00478515625,9.555957031250001,17.88330078125,35.82763671875,-7.568359375,-0.1220703125,-0.06103515625,0.0
14:32:40.095, -7.225585937500001,1.7322265625000002,8.75205078125,-1.6508789062500002,0.06699218750000001,9.603808593750001,0.1220703125,0.0,15.07568359375,0.1220703125,0.06103515625,0.0
14:32:40.206, -8.30224609375,0.7895507812500001,7.79501953125,-1.6173828125,0.1244140625,9.579882812500001,14.34326171875,2.74658203125,-4.150390625,-0.244140625,0.0,0.0
14:32:40.316, -7.4361328125,0.0765625,6.9671875000000005,-1.6221679687500001,0.0,9.555957031250001,27.7099609375,-13.0615234375,-37.4755859375,0.0,0.0,0.0
14:32:40.426, -7.192089843750001,1.91884765625,9.4458984375,-1.6125976562500002,0.033496093750000004,9.6181640625,-20.263671875,-19.83642578125,-44.0673828125,0.0,0.0,0.0
14:32:40.537, -6.914550781250001,0.17705078125,8.503222656250001,-1.64130859375,0.095703125,9.555957031250001,10.68115234375,18.98193359375,-10.19287109375,0.0,0.0,0.0
14:32:40.647, -7.9959960937500005,2.7658203125000003,8.44580078125,-1.6078125,0.10527343750000001,9.575097656250001,-2.38037109375,20.08056640625,-17.9443359375,0.0,0.0,0.0
14:32:40.759, -5.2923828125000005,-1.5503906250000001,5.373730468750001,-1.6269531250000002,0.06220703125,9.527246093750001,-50.6591796875,40.10009765625,-48.03466796875,0.0,0.0,0.0
14:32:40.869, -7.5318359375,-2.13896484375,5.254101562500001,-1.6030273437500002,0.07177734375,9.603808593750001,-108.45947265625,38.818359375,-44.0673828125,0.0,0.0,0.0
14:32:40.980, -8.17783203125,-3.40224609375,6.2302734375,-1.6269531250000002,0.0478515625,9.5607421875,-30.6396484375,18.798828125,-54.3212890625,0.0,0.0,0.0
14:32:41.091, -7.7615234375,-2.4117187500000004,8.115625000000001,-1.6173828125,0.13398437500000002,9.6181640625,39.85595703125,-23.3154296875,-52.67333984375,0.0,0.0,0.0
14:32:41.202, -5.96708984375,-1.9236328125000002,4.38798828125,-1.6125976562500002,0.0765625,9.551171875000001,7.01904296875,-18.9208984375,66.2841796875,0.0,0.0,0.0
