Time, AccX1, AccY1, AccZ1, AccX2, AccY2, AccZ2, AngVelX1, AngVelY1, AngVelZ1, AngVelX2, AngVelY2, AngVelZ2
10:41:11.376, 0.0,0.0,0.0,0.0,0.0,0.0,-0.732421875,-2.25830078125,-1.0986328125,0.0,0.0,0.0
10:41:11.478, 1.0623046875000002,-0.052636718750000006,9.790429687500001,1.5791015625000002,-0.9474609375,9.699511718750001,-2.50244140625,2.74658203125,0.1220703125,0.0,0.18310546875,0.0
10:41:11.589, 0.976171875,-0.35888671875,9.59423828125,1.59345703125,-0.9187500000000001,9.5703125,0.42724609375,0.6103515625,1.0986328125,0.0,-0.06103515625,0.0
10:41:11.701, 1.01923828125,-0.13876953125000002,9.814355468750001,1.5743164062500001,-0.95224609375,9.66123046875,1.52587890625,0.9765625,-3.23486328125,-0.06103515625,-0.1220703125,0.0
10:41:11.829, 1.0000976562500001,0.0095703125,9.68994140625,1.6030273437500002,-0.9283203125,9.63251953125,-0.732421875,-0.3662109375,-0.244140625,0.0,0.0,0.06103515625
10:41:11.940, 0.9809570312500001,-0.17705078125,9.742578125000001,1.6078125,-0.9331054687500001,9.6564453125,-2.01416015625,0.9765625,2.99072265625,0.0,0.0,0.0
10:41:12.051, 1.00966796875,-0.24404296875,9.70908203125,1.5743164062500001,-0.9426757812500001,9.6181640625,0.67138671875,-0.6103515625,-1.0986328125,0.0,0.06103515625,0.0
10:41:12.163, 1.01923828125,-0.10048828125,9.64208984375,1.5886718750000002,-0.95224609375,9.6181640625,-0.1220703125,0.1220703125,-0.67138671875,0.0,0.0,0.0
10:41:12.274, 1.01923828125,-0.153125,9.766503906250001,1.5791015625000002,-0.9378906250000001,9.6181640625,-0.30517578125,0.0,1.03759765625,0.0,0.0,0.0
10:41:12.385, 0.9953125,-0.19619140625,9.76171875,1.5886718750000002,-0.9426757812500001,9.627734375000001,0.18310546875,-0.30517578125,-0.6103515625,0.0,0.0,0.0
10:41:12.497, 1.00966796875,-0.12919921875,9.747363281250001,1.5982421875000001,-0.9666015625000001,9.64208984375,0.9765625,-0.06103515625,-1.220703125,0.0,0.0,0.0
10:41:12.608, 1.05751953125,-0.08134765625000001,9.70908203125,1.5886718750000002,-0.95224609375,9.627734375000001,0.244140625,-0.1220703125,-0.42724609375,0.0,0.0,0.0
10:41:12.720, 1.03359375,-0.13398437500000002,9.76171875,1.58388671875,-0.9331054687500001,9.627734375000001,-0.30517578125,0.06103515625,0.54931640625,0.0,0.0,0.0
10:41:12.831, 1.0479492187500001,-0.13398437500000002,9.70908203125,1.6030273437500002,-0.9570312500000001,9.622949218750001,0.244140625,-0.1220703125,-0.48828125,0.0,0.0,0.0
10:41:12.942, 1.0718750000000001,-0.11484375000000001,9.68515625,1.56953125,-0.9618164062500001,9.627734375000001,0.06103515625,0.244140625,-0.6103515625,0.0,0.0,0.0
10:41:13.054, 1.0814453125,-0.1244140625,9.704296875,1.6030273437500002,-0.9331054687500001,9.627734375000001,0.1220703125,-0.18310546875,0.54931640625,0.0,0.0,0.0
10:41:13.165, 1.052734375,-0.1435546875,9.718652343750001,1.5791015625000002,-0.9378906250000001,9.63251953125,-0.30517578125,0.244140625,-0.1220703125,0.0,0.0,0.0
10:41:13.277, 1.0479492187500001,-0.15791015625000002,9.80478515625,1.58388671875,-0.9570312500000001,9.603808593750001,0.18310546875,0.6103515625,-0.3662109375,0.0,0.0,0.0
10:41:13.388, 1.0383789062500002,-0.11962890625000001,9.651660156250001,1.5791015625000002,-0.95224609375,9.622949218750001,0.244140625,0.1220703125,0.54931640625,0.0,0.0,0.0
10:41:13.498, 1.0383789062500002,-0.1244140625,9.780859375,1.5025390625000001,-0.8708984375000001,9.4650390625,-0.1220703125,-0.30517578125,-0.42724609375,-0.42724609375,0.06103515625,0.0
10:41:13.609, 1.052734375,-0.1435546875,9.70908203125,2.1006835937500004,-1.2297851562500002,9.90048828125,-0.244140625,0.30517578125,0.6103515625,-0.54931640625,0.6103515625,0.0
10:41:13.720, 1.0431640625,-0.16269531250000002,9.742578125000001,1.5216796875,-0.9378906250000001,9.64208984375,-0.1220703125,-0.30517578125,0.0,0.6103515625,-0.42724609375,0.06103515625
10:41:13.831, 1.0814453125,-0.0861328125,9.771289062500001,1.6078125,-0.74169921875,9.7330078125,0.06103515625,0.18310546875,-1.03759765625,0.48828125,-0.244140625,0.0
10:41:13.942, 1.091015625,-0.11484375000000001,9.7138671875,1.5743164062500001,-0.9378906250000001,9.6181640625,-0.244140625,0.0,0.42724609375,0.1220703125,0.0,0.0
10:41:14.054, 1.06708984375,-0.13398437500000002,9.723437500000001,1.59345703125,-0.9618164062500001,9.64208984375,0.30517578125,0.3662109375,0.244140625,-0.42724609375,0.244140625,0.1220703125
10:41:14.165, 1.0479492187500001,-0.13876953125000002,9.699511718750001,1.5791015625000002,-0.976171875,9.61337890625,0.48828125,0.244140625,-0.67138671875,0.0,-0.06103515625,0.0
10:41:14.277, 1.0718750000000001,-0.057421875000000004,9.790429687500001,1.5791015625000002,-0.9618164062500001,9.64208984375,0.06103515625,-0.3662109375,-0.42724609375,0.1220703125,0.0,0.0
10:41:14.388, 1.00966796875,-0.18183593750000002,9.78564453125,1.5791015625000002,-0.97138671875,9.66123046875,-0.30517578125,0.3662109375,0.244140625,0.0,0.0,-0.1220703125
10:41:14.500, 1.0623046875000002,-0.11005859375,9.742578125000001,1.5886718750000002,-0.9474609375,9.6373046875,0.3662109375,0.1220703125,-0.30517578125,-0.06103515625,0.06103515625,0.0
10:41:14.611, 1.0718750000000001,-0.03828125,9.723437500000001,1.59345703125,-0.9474609375,9.670800781250001,0.67138671875,-0.30517578125,-0.18310546875,0.06103515625,-0.30517578125,0.0
10:41:14.722, 1.0718750000000001,-0.0861328125,9.80478515625,1.6173828125,-0.9426757812500001,9.6181640625,-0.30517578125,-0.18310546875,0.0,-0.1220703125,0.06103515625,0.06103515625
10:41:14.833, 1.05751953125,-0.13876953125000002,9.699511718750001,1.6030273437500002,-0.9474609375,9.64208984375,0.0,0.6103515625,0.3662109375,0.1220703125,0.0,0.06103515625
10:41:14.944, 1.06708984375,-0.11484375000000001,9.766503906250001,1.58388671875,-0.9474609375,9.6181640625,0.30517578125,-0.3662109375,-0.91552734375,0.0,0.0,0.06103515625
10:41:15.056, 1.0623046875000002,-0.08134765625000001,9.723437500000001,1.59345703125,-0.9474609375,9.66123046875,-0.06103515625,-0.6103515625,-0.18310546875,0.0,-0.18310546875,-0.1220703125
10:41:15.167, 1.091015625,-0.11962890625000001,9.742578125000001,1.59345703125,-0.95224609375,9.622949218750001,-0.1220703125,0.06103515625,0.6103515625,0.0,0.0,0.0
10:41:15.277, 1.0862304687500002,-0.13398437500000002,9.73779296875,1.5599609375,-0.9474609375,9.622949218750001,0.0,0.0,-0.6103515625,0.0,0.0,0.0
10:41:15.388, 1.11494140625,-0.057421875000000004,9.68994140625,1.5886718750000002,-0.9426757812500001,9.6373046875,0.0,0.79345703125,0.30517578125,0.0,0.0,0.0
10:41:15.498, 1.07666015625,-0.11962890625000001,9.68515625,1.5886718750000002,-0.9426757812500001,9.60859375,0.1220703125,-0.06103515625,0.48828125,0.0,0.0,0.0
10:41:15.610, 1.11494140625,-0.0861328125,9.7521484375,1.59345703125,-0.9474609375,9.6373046875,-0.3662109375,0.0,-0.30517578125,0.0,0.0,0.0
10:41:15.722, 1.0623046875000002,-0.095703125,9.699511718750001,1.59345703125,-0.9474609375,9.651660156250001,0.54931640625,-0.06103515625,-0.8544921875,0.0,0.0,0.0
10:41:15.834, 1.12451171875,-0.028710937500000002,9.723437500000001,1.5791015625000002,-0.9666015625000001,9.6373046875,0.42724609375,-0.67138671875,-0.48828125,0.0,0.0,0.0
10:41:15.946, 1.12451171875,-0.0478515625,9.70908203125,1.5791015625000002,-0.9474609375,9.627734375000001,-0.244140625,-0.244140625,-0.18310546875,0.0,0.0,0.0
10:41:16.057, 1.0862304687500002,-0.057421875000000004,9.7521484375,1.5743164062500001,-0.9426757812500001,9.6373046875,0.1220703125,-0.30517578125,0.0,0.0,0.0,0.0
10:41:16.168, 1.0958007812500001,-0.0765625,9.73779296875,1.5791015625000002,-0.95224609375,9.6373046875,-0.244140625,-1.28173828125,0.0,0.0,0.0,0.0
10:41:16.280, 1.1388671875,-0.153125,9.766503906250001,1.5886718750000002,-0.95224609375,9.60859375,0.3662109375,-1.220703125,0.6103515625,0.0,0.0,0.0
10:41:16.392, 1.1819335937500002,-0.07177734375,9.66123046875,1.5647460937500002,-0.97138671875,9.6564453125,0.3662109375,-0.79345703125,-0.6103515625,0.0,0.0,0.0
10:41:16.502, 1.1771484375,-0.10527343750000001,9.75693359375,1.5791015625000002,-0.9426757812500001,9.599023437500001,0.6103515625,-0.67138671875,-0.30517578125,0.0,0.0,0.0
10:41:16.614, 1.25849609375,0.0,9.670800781250001,1.59345703125,-0.9618164062500001,9.6564453125,0.06103515625,-0.8544921875,-0.732421875,0.0,0.0,0.0
10:41:16.725, 1.24892578125,-0.03828125,9.704296875,1.5791015625000002,-0.9474609375,9.627734375000001,0.6103515625,0.244140625,-0.30517578125,0.0,0.0,0.0
10:41:16.836, 1.225,0.033496093750000004,9.68037109375,1.6030273437500002,-0.9570312500000001,9.6181640625,-0.48828125,0.42724609375,-2.13623046875,0.0,0.0,0.0
10:41:16.948, 1.2537109375000002,0.00478515625,9.68515625,1.5551757812500002,-0.9378906250000001,9.6181640625,-0.42724609375,-0.18310546875,1.8310546875,0.0,0.0,0.0
10:41:17.059, 1.22021484375,-0.11484375000000001,9.73779296875,1.58388671875,-0.9474609375,9.63251953125,-0.18310546875,0.8544921875,0.91552734375,0.0,0.0,0.0
10:41:17.171, 1.15322265625,-0.04306640625,9.75693359375,1.58388671875,-0.95224609375,9.63251953125,-0.3662109375,-0.30517578125,-0.91552734375,0.0,0.0,0.0
10:41:17.282, 1.2154296875000001,-0.07177734375,9.670800781250001,1.56953125,-0.95224609375,9.63251953125,0.42724609375,0.54931640625,1.220703125,0.0,0.0,0.0
10:41:17.394, 1.21064453125,0.00478515625,9.76171875,1.6078125,-0.9666015625000001,9.603808593750001,0.30517578125,-0.30517578125,0.06103515625,0.0,0.0,0.0
10:41:17.505, 1.24892578125,-0.0765625,9.646875000000001,1.56953125,-0.95224609375,9.60859375,-0.06103515625,-0.42724609375,1.28173828125,0.0,0.0,0.0
10:41:17.616, 1.17236328125,0.0,9.7330078125,1.5886718750000002,-0.97138671875,9.622949218750001,-0.732421875,0.42724609375,0.42724609375,0.0,0.0,0.0
10:41:17.726, 1.2728515625,-0.0861328125,9.64208984375,1.5791015625000002,-0.9426757812500001,9.627734375000001,-0.67138671875,-1.220703125,2.9296875,0.0,0.0,0.0
10:41:17.838, 1.2537109375000002,-0.21533203125000003,9.56552734375,1.5791015625000002,-0.9666015625000001,9.627734375000001,0.30517578125,2.685546875,0.42724609375,-0.06103515625,0.0,-0.06103515625
10:41:17.948, 1.1340820312500002,-0.019140625,9.8287109375,1.5886718750000002,-0.9618164062500001,9.58466796875,-0.30517578125,2.44140625,-1.8310546875,0.18310546875,0.0,0.06103515625
10:41:18.059, 1.18671875,-0.06699218750000001,9.527246093750001,1.5982421875000001,-0.97138671875,9.603808593750001,-0.42724609375,-0.8544921875,2.8076171875,-0.1220703125,0.0,-0.06103515625
10:41:18.172, 1.1388671875,-0.13398437500000002,9.9052734375,1.56953125,-0.9426757812500001,9.651660156250001,-0.244140625,1.708984375,-3.173828125,-0.06103515625,0.06103515625,0.06103515625
10:41:18.283, 1.0862304687500002,-0.028710937500000002,9.599023437500001,1.5982421875000001,-0.9378906250000001,9.54638671875,0.1220703125,0.0,1.52587890625,0.0,0.06103515625,0.0
10:41:18.394, 1.0623046875000002,-0.25361328125000004,9.6373046875,1.6078125,-0.9666015625000001,9.589453125,1.15966796875,2.0751953125,1.5869140625,0.06103515625,-0.3662109375,0.06103515625
10:41:18.505, 1.0144531250000002,-0.04306640625,9.981835937500001,1.6173828125,-0.9283203125,9.6181640625,1.89208984375,0.42724609375,-4.45556640625,0.1220703125,-0.30517578125,0.0
10:41:18.616, 1.21064453125,0.00478515625,9.45068359375,1.5599609375,-0.9378906250000001,9.60859375,0.732421875,-2.197265625,1.28173828125,0.18310546875,-0.30517578125,0.06103515625
10:41:18.727, 1.1484375,0.0,9.61337890625,1.5791015625000002,-0.95224609375,9.6564453125,-0.9765625,3.90625,0.6103515625,0.0,-0.42724609375,0.0
10:41:18.838, 1.0623046875000002,-0.10048828125,10.07275390625,1.6365234375000002,-0.9139648437500001,9.73779296875,-0.9765625,1.0986328125,1.77001953125,-0.18310546875,-0.06103515625,-0.1220703125
10:41:18.949, 1.1580078125000002,-0.153125,9.718652343750001,1.58388671875,-0.9474609375,9.60859375,-0.244140625,-2.86865234375,-0.8544921875,0.0,0.06103515625,0.06103515625
10:41:19.061, 1.10537109375,0.00478515625,9.44111328125,1.6125976562500002,-0.9618164062500001,9.6564453125,0.0,2.86865234375,-1.15966796875,0.0,-0.06103515625,0.0
10:41:19.172, 0.9809570312500001,-0.019140625,10.178027343750001,1.6508789062500002,-0.95224609375,9.6181640625,-1.40380859375,2.3193359375,1.46484375,0.0,0.06103515625,0.0
10:41:19.284, 1.1915039062500001,-0.22968750000000002,9.5703125,1.5791015625000002,-0.90439453125,9.61337890625,-2.01416015625,-1.3427734375,0.9765625,0.0,-0.06103515625,-0.1220703125
10:41:19.395, 1.07666015625,-0.248828125,9.646875000000001,2.201171875,-2.1198242187500003,7.728027343750001,1.40380859375,1.708984375,0.06103515625,0.48828125,-2.99072265625,-1.0986328125
10:41:19.507, 1.0623046875000002,-0.00478515625,9.83349609375,1.5408203125000002,-0.95224609375,9.59423828125,1.0986328125,1.03759765625,-2.685546875,0.0,0.1220703125,0.0
10:41:19.618, 1.0479492187500001,-0.052636718750000006,9.599023437500001,1.6700195312500001,-0.9378906250000001,9.64208984375,-1.89208984375,-1.220703125,2.197265625,0.30517578125,0.18310546875,0.0
10:41:19.730, 1.091015625,-0.24404296875,9.68994140625,1.64130859375,-0.95224609375,9.6373046875,-0.06103515625,1.03759765625,2.0751953125,0.0,0.0,0.0
10:41:19.842, 0.9857421875000001,-0.22968750000000002,9.78564453125,1.6460937500000001,-0.9666015625000001,9.6181640625,1.953125,1.15966796875,-3.35693359375,-0.1220703125,0.0,0.0
10:41:19.953, 1.10537109375,0.10048828125,9.66123046875,1.6748046875000002,-0.74169921875,9.938769531250001,0.3662109375,-1.89208984375,-3.11279296875,3.84521484375,-1.89208984375,0.3662109375
10:41:20.064, 1.091015625,-0.2201171875,9.82392578125,1.7083007812500002,-0.8421875000000001,9.627734375000001,-0.79345703125,1.220703125,3.47900390625,1.708984375,-0.30517578125,0.30517578125
10:41:20.176, 1.052734375,-0.21533203125000003,9.64208984375,1.6748046875000002,-0.7225585937500001,9.603808593750001,-0.1220703125,-0.732421875,-1.0986328125,1.77001953125,-0.06103515625,0.244140625
10:41:20.287, 1.07666015625,-0.06699218750000001,9.68515625,1.6556640625,-0.708203125,9.64208984375,1.46484375,1.8310546875,-1.89208984375,1.8310546875,0.30517578125,0.244140625
10:41:20.397, 1.0048828125,-0.028710937500000002,9.75693359375,1.67958984375,-0.7225585937500001,9.646875000000001,0.79345703125,-0.06103515625,-0.54931640625,0.244140625,0.3662109375,0.06103515625
10:41:20.508, 1.0623046875000002,-0.052636718750000006,9.7330078125,1.6843750000000002,-0.7177734375,9.651660156250001,-1.5869140625,-0.79345703125,0.30517578125,0.0,0.1220703125,0.0
10:41:20.618, 1.091015625,-0.15791015625000002,9.670800781250001,1.6125976562500002,-0.73212890625,9.60859375,-0.48828125,0.30517578125,0.732421875,-0.244140625,0.244140625,0.0
10:41:20.730, 1.0479492187500001,-0.1244140625,9.8,1.67958984375,-0.7225585937500001,9.66123046875,-0.18310546875,0.244140625,-0.1220703125,0.1220703125,0.30517578125,0.0
10:41:20.842, 1.0862304687500002,-0.1244140625,9.666015625,1.6365234375000002,-0.7512695312500001,9.627734375000001,-0.9765625,-1.3427734375,0.0,-0.42724609375,0.18310546875,0.0
10:41:20.954, 1.05751953125,-0.2009765625,9.675585937500001,1.6604492187500002,-0.7177734375,9.627734375000001,1.40380859375,1.8310546875,-1.3427734375,-0.42724609375,0.06103515625,0.0
10:41:21.066, 1.091015625,0.06220703125,9.699511718750001,1.6125976562500002,-0.765625,9.5224609375,-0.67138671875,-0.42724609375,-0.30517578125,-0.18310546875,0.06103515625,0.0
10:41:21.178, 1.11494140625,-0.11962890625000001,9.666015625,1.6604492187500002,-0.7177734375,9.699511718750001,-2.197265625,1.708984375,3.72314453125,0.18310546875,0.0,0.0
10:41:21.291, 1.02880859375,-0.33017578125,9.766503906250001,1.6221679687500001,-0.7177734375,9.666015625,-0.67138671875,0.1220703125,1.5869140625,-0.1220703125,-0.1220703125,0.0
10:41:21.402, 1.0240234375000001,-0.0765625,9.78564453125,1.6843750000000002,-0.765625,9.627734375000001,0.79345703125,0.42724609375,-3.23486328125,0.06103515625,-0.18310546875,0.0
10:41:21.515, 0.9953125,0.033496093750000004,9.72822265625,1.6460937500000001,-0.7512695312500001,9.60859375,-1.77001953125,3.173828125,0.8544921875,-0.1220703125,0.0,0.0
10:41:21.628, 1.0000976562500001,-0.172265625,9.7330078125,1.6604492187500002,-0.73212890625,9.6373046875,-2.3193359375,0.18310546875,4.7607421875,-0.244140625,0.1220703125,0.1220703125
10:41:21.740, 0.9474609375,-0.33974609375000003,9.6373046875,1.6604492187500002,-0.7560546875,9.6181640625,-0.42724609375,1.52587890625,2.25830078125,-0.244140625,0.0,0.0
10:41:21.852, 0.899609375,-0.09091796875000001,9.771289062500001,1.6460937500000001,-0.7464843750000001,9.627734375000001,-0.42724609375,0.48828125,-0.42724609375,-0.3662109375,0.06103515625,0.0
10:41:21.963, 0.9426757812500001,-0.19619140625,9.704296875,1.6939453125000001,-0.765625,9.646875000000001,-0.9765625,-0.18310546875,2.5634765625,0.06103515625,-0.244140625,0.06103515625
10:41:22.076, 0.97138671875,-0.32060546875,9.7521484375,1.67958984375,-0.73212890625,9.63251953125,0.54931640625,-1.52587890625,0.8544921875,0.42724609375,-0.244140625,0.0
10:41:22.188, 1.0240234375000001,-0.1435546875,9.6373046875,1.6508789062500002,-0.7751953125000001,9.627734375000001,1.03759765625,-1.0986328125,-2.13623046875,0.06103515625,-0.18310546875,-0.06103515625
10:41:22.301, 1.01923828125,-0.06699218750000001,9.72822265625,1.6604492187500002,-0.74169921875,9.6373046875,-0.8544921875,-0.30517578125,-0.30517578125,0.0,0.1220703125,-0.06103515625
10:41:22.413, 1.0383789062500002,-0.287109375,9.7330078125,1.6604492187500002,-0.7560546875,9.599023437500001,-0.79345703125,-0.732421875,1.89208984375,0.06103515625,0.06103515625,0.0
10:41:22.526, 1.0383789062500002,-0.2583984375,9.7138671875,1.6556640625,-0.7704101562500001,9.64208984375,0.244140625,0.48828125,-0.79345703125,0.0,0.1220703125,0.0
10:41:22.638, 1.0383789062500002,-0.17705078125,9.771289062500001,1.6700195312500001,-0.74169921875,9.58466796875,0.732421875,-0.18310546875,-0.6103515625,0.06103515625,0.06103515625,-0.06103515625
10:41:22.750, 1.03359375,-0.17705078125,9.6181640625,1.67958984375,-0.7369140625,9.622949218750001,-0.1220703125,0.0,-0.30517578125,0.0,0.06103515625,0.0
10:41:22.861, 0.9857421875000001,-0.2201171875,9.819140625000001,1.6700195312500001,-0.765625,9.61337890625,-0.6103515625,-0.91552734375,-0.06103515625,0.0,0.244140625,0.0
10:41:22.973, 1.052734375,-0.19619140625,9.704296875,1.6460937500000001,-0.73212890625,9.627734375000001,-0.9765625,-0.42724609375,-0.18310546875,-0.18310546875,0.1220703125,0.0
10:41:23.084, 1.0623046875000002,-0.27753906250000004,9.780859375,1.6556640625,-0.76083984375,9.6181640625,-0.244140625,0.30517578125,1.03759765625,0.0,0.0,0.0
10:41:23.196, 1.0623046875000002,-0.2966796875,9.723437500000001,1.6508789062500002,-0.7560546875,9.589453125,0.1220703125,-0.91552734375,0.0,-0.18310546875,0.18310546875,-0.1220703125
10:41:23.308, 1.1101562500000002,-0.18662109375000002,9.670800781250001,1.6269531250000002,-0.765625,9.6181640625,-0.9765625,-0.06103515625,0.0,-0.1220703125,0.0,0.06103515625
10:41:23.419, 1.07666015625,-0.33017578125,9.7521484375,1.6460937500000001,-0.6794921875000001,9.646875000000001,-0.42724609375,1.77001953125,1.28173828125,-0.42724609375,0.30517578125,0.0
10:41:23.530, 1.0048828125,-0.32539062500000004,9.68037109375,1.67958984375,-0.73212890625,9.7138671875,2.50244140625,0.30517578125,-2.01416015625,1.15966796875,-0.30517578125,0.1220703125
10:41:23.641, 1.0383789062500002,-0.0765625,9.819140625000001,1.64130859375,-0.7704101562500001,9.646875000000001,1.5869140625,0.79345703125,-3.35693359375,0.18310546875,0.6103515625,0.06103515625
10:41:23.753, 1.00966796875,-0.16269531250000002,9.704296875,1.6269531250000002,-0.7512695312500001,9.59423828125,-2.3193359375,0.732421875,2.86865234375,0.3662109375,0.0,0.0
10:41:23.865, 1.0000976562500001,-0.37802734375,9.8287109375,1.665234375,-0.669921875,9.68515625,-2.50244140625,0.91552734375,2.62451171875,-0.244140625,0.3662109375,0.0
10:41:23.976, 0.9857421875000001,-0.37324218750000004,9.6373046875,1.6365234375000002,-0.80390625,9.70908203125,1.5869140625,-1.220703125,-0.42724609375,-2.25830078125,0.1220703125,-0.1220703125
10:41:24.087, 1.02880859375,-0.1435546875,9.9052734375,1.6460937500000001,-0.77998046875,9.622949218750001,0.9765625,0.42724609375,-3.35693359375,0.54931640625,-0.48828125,-0.06103515625
10:41:24.200, 0.9809570312500001,-0.23447265625000002,9.6373046875,1.6700195312500001,-0.76083984375,9.66123046875,-2.13623046875,-0.8544921875,4.0283203125,0.67138671875,0.0,-0.06103515625
10:41:24.312, 1.0479492187500001,-0.45937500000000003,9.747363281250001,1.64130859375,-0.7464843750000001,9.699511718750001,0.30517578125,0.79345703125,0.91552734375,0.42724609375,0.0,0.1220703125
10:41:24.423, 1.01923828125,-0.22490234375,9.7330078125,1.58388671875,-0.7751953125000001,9.58466796875,1.89208984375,-1.15966796875,-4.150390625,0.18310546875,0.244140625,0.0
10:41:24.534, 1.02880859375,-0.09091796875000001,9.747363281250001,1.6221679687500001,-0.7369140625,9.6373046875,-0.6103515625,0.79345703125,-0.30517578125,0.1220703125,0.0,0.0
10:41:24.646, 1.0048828125,-0.32539062500000004,9.780859375,1.6365234375000002,-0.7273437500000001,9.66123046875,-0.6103515625,1.0986328125,3.84521484375,-0.30517578125,0.30517578125,-0.06103515625
10:41:24.757, 1.0048828125,-0.30625,9.68037109375,1.64130859375,-0.76083984375,9.64208984375,0.8544921875,-0.67138671875,-3.72314453125,-0.3662109375,0.1220703125,0.0
10:41:24.884, 1.0479492187500001,-0.11962890625000001,9.747363281250001,1.5982421875000001,-0.74169921875,9.61337890625,0.732421875,0.9765625,-0.42724609375,0.0,-0.1220703125,-0.06103515625
10:41:24.996, 1.0000976562500001,-0.32060546875,9.76171875,1.665234375,-0.73212890625,9.64208984375,-0.54931640625,-0.3662109375,1.40380859375,-0.1220703125,-0.06103515625,0.0
10:41:25.108, 0.97138671875,-0.26796875000000003,9.723437500000001,1.64130859375,-0.73212890625,9.651660156250001,0.18310546875,0.732421875,-0.91552734375,0.1220703125,0.0,0.0
10:41:25.219, 1.0623046875000002,-0.21533203125000003,9.73779296875,1.6221679687500001,-0.7560546875,9.6181640625,-0.48828125,0.244140625,0.18310546875,0.30517578125,-0.1220703125,-0.06103515625
10:41:25.330, 0.9666015625000001,-0.287109375,9.82392578125,1.6556640625,-0.7369140625,9.622949218750001,0.1220703125,-0.244140625,0.8544921875,0.0,-0.18310546875,0.0
10:41:25.441, 1.0240234375000001,-0.052636718750000006,9.866992187500001,1.6078125,-0.7704101562500001,9.666015625,-0.91552734375,0.0,-0.42724609375,-0.06103515625,0.1220703125,0.0
10:41:25.552, 0.9905273437500001,-0.2009765625,9.78564453125,1.6221679687500001,-0.7369140625,9.61337890625,-2.74658203125,0.67138671875,0.48828125,-0.244140625,-0.1220703125,0.0
10:41:25.663, 1.0240234375000001,-0.3541015625,9.7330078125,1.6460937500000001,-0.7369140625,9.666015625,-1.953125,-1.0986328125,2.13623046875,-0.18310546875,-0.06103515625,-0.1220703125
10:41:25.775, 1.091015625,-0.48330078125000003,9.599023437500001,1.5886718750000002,-0.7560546875,9.60859375,0.3662109375,-1.46484375,0.0,0.0,0.0,0.0
10:41:25.886, 1.10537109375,-0.248828125,9.73779296875,1.6508789062500002,-0.7704101562500001,9.68994140625,0.244140625,1.64794921875,0.18310546875,0.18310546875,0.1220703125,0.0
10:41:25.996, 1.091015625,-0.3349609375,9.790429687500001,1.6460937500000001,-0.7560546875,9.61337890625,-0.54931640625,0.244140625,0.79345703125,0.1220703125,0.0,0.0
10:41:26.110, 1.00966796875,-0.3828125,9.627734375000001,1.6604492187500002,-0.765625,9.694726562500001,0.8544921875,1.77001953125,-0.48828125,0.244140625,0.0,0.06103515625
10:41:26.236, 1.0048828125,-0.33017578125,9.857421875,1.6269531250000002,-0.765625,9.651660156250001,1.953125,0.0,-1.46484375,0.0,-0.06103515625,0.0
10:41:26.348, 1.3111328125000001,0.08134765625000001,9.699511718750001,1.6269531250000002,-0.7560546875,9.68994140625,9.27734375,-0.91552734375,6.77490234375,0.18310546875,0.1220703125,0.1220703125
10:41:26.459, 1.3015625000000002,0.06220703125,10.225878906250001,1.6556640625,-0.7369140625,9.6564453125,-6.2255859375,-35.15625,32.65380859375,0.8544921875,0.0,0.0
10:41:26.571, 1.6173828125,-0.44501953125000004,8.48408203125,1.6173828125,-0.669921875,9.60859375,-9.82666015625,-20.6298828125,51.025390625,2.25830078125,-0.3662109375,0.244140625
10:41:26.681, 1.4307617187500001,-0.6986328125000001,9.704296875,1.6365234375000002,-0.68427734375,9.579882812500001,-3.173828125,5.859375,55.96923828125,0.732421875,0.06103515625,-0.06103515625
10:41:26.793, 1.1771484375,-0.8613281250000001,9.7138671875,1.64130859375,-0.6603515625,9.63251953125,5.92041015625,0.79345703125,94.05517578125,-2.197265625,0.1220703125,-0.3662109375
10:41:26.904, 0.9139648437500001,-1.50732421875,9.46982421875,1.5982421875000001,-0.7560546875,9.666015625,-0.18310546875,-2.685546875,100.830078125,-0.732421875,0.0,-0.1220703125
10:41:27.014, 0.8182617187500001,-1.7178710937500001,9.72822265625,1.6125976562500002,-0.71298828125,9.666015625,8.6669921875,1.953125,93.07861328125,0.244140625,-0.06103515625,-0.1220703125
10:41:27.125, 0.80869140625,-1.4786132812500001,9.53681640625,1.6078125,-0.6986328125000001,9.6373046875,10.009765625,-3.23486328125,64.697265625,0.67138671875,0.0,-0.06103515625
10:41:27.236, 1.0623046875000002,-1.3111328125000001,9.555957031250001,1.6508789062500002,-0.6890625,9.666015625,12.87841796875,-3.23486328125,53.64990234375,0.06103515625,0.1220703125,0.0
10:41:27.347, 1.225,-1.41162109375,9.790429687500001,1.64130859375,-0.71298828125,9.61337890625,10.7421875,-2.197265625,50.96435546875,-0.1220703125,0.244140625,-0.1220703125
10:41:27.459, 1.18671875,-1.1962890625,9.551171875000001,1.6700195312500001,-0.6603515625,9.60859375,9.6435546875,-0.30517578125,34.0576171875,0.0,0.0,0.06103515625
10:41:27.570, 1.02880859375,-0.9618164062500001,9.63251953125,1.6125976562500002,-0.7034179687500001,9.599023437500001,-5.2490234375,-1.220703125,19.10400390625,0.18310546875,-0.06103515625,-0.1220703125
10:41:27.681, 0.92353515625,-1.2393554687500001,9.398046875,1.6269531250000002,-0.6316406250000001,9.6373046875,4.21142578125,0.79345703125,0.3662109375,-0.06103515625,0.42724609375,0.0
10:41:27.792, 0.7512695312500001,-0.8182617187500001,9.747363281250001,1.6556640625,-0.7273437500000001,9.670800781250001,9.033203125,5.615234375,1.77001953125,-0.1220703125,0.244140625,0.0
10:41:27.904, 0.80869140625,-0.92353515625,9.666015625,1.6604492187500002,-0.7369140625,9.579882812500001,-0.06103515625,4.57763671875,-0.30517578125,-0.3662109375,0.1220703125,-0.06103515625
10:41:28.014, 0.7560546875,-0.5837890625000001,10.01533203125,1.63173828125,-0.6747070312500001,9.579882812500001,1.220703125,-6.2255859375,-4.8828125,-0.18310546875,-0.8544921875,0.0
10:41:28.125, 0.9857421875000001,-0.708203125,9.8765625,1.63173828125,-0.76083984375,9.670800781250001,-6.40869140625,-10.07080078125,-8.30078125,-2.8076171875,0.244140625,-0.06103515625
10:41:28.236, 0.9570312500000001,-1.1962890625,9.64208984375,1.6221679687500001,-0.765625,9.6564453125,1.52587890625,-10.80322265625,-4.33349609375,-0.54931640625,-0.244140625,-0.18310546875
10:41:28.347, 1.2632812500000001,-0.5072265625000001,10.173242187500001,1.6508789062500002,-0.77998046875,9.60859375,6.28662109375,-9.521484375,-4.33349609375,0.42724609375,-0.42724609375,-0.18310546875
10:41:28.458, 1.7226562500000002,-0.6077148437500001,10.15888671875,1.64130859375,-0.76083984375,9.603808593750001,7.62939453125,-11.04736328125,-8.7890625,0.1220703125,-0.244140625,0.0
10:41:28.569, 1.894921875,-0.02392578125,9.5607421875,1.5886718750000002,-0.8374023437500001,9.819140625000001,13.61083984375,-7.6904296875,-5.859375,0.0,0.244140625,0.18310546875
10:41:28.680, 1.59345703125,-0.2583984375,9.37412109375,1.6700195312500001,-0.80390625,9.555957031250001,-11.3525390625,6.40869140625,-0.3662109375,0.06103515625,-0.06103515625,-0.06103515625
10:41:28.792, 0.5263671875,-0.6077148437500001,9.024804687500001,1.6221679687500001,-0.76083984375,9.666015625,-3.96728515625,12.26806640625,6.34765625,0.0,0.06103515625,-0.06103515625
10:41:28.904, 0.8948242187500001,-0.82783203125,10.14453125,1.6556640625,-0.7704101562500001,9.68515625,8.30078125,17.578125,1.40380859375,-0.06103515625,0.06103515625,-0.06103515625
10:41:29.014, 0.95224609375,-1.1484375,9.6373046875,1.6987304687500002,-0.7369140625,9.64208984375,3.35693359375,14.2822265625,-2.0751953125,0.06103515625,0.0,-0.18310546875
10:41:29.126, 0.784765625,-0.2201171875,10.436425781250001,1.6125976562500002,-0.7991210937500001,9.603808593750001,19.775390625,14.892578125,-7.32421875,0.732421875,-0.06103515625,-0.1220703125
10:41:29.237, 0.58857421875,0.25361328125000004,9.771289062500001,1.6460937500000001,-0.7369140625,9.627734375000001,22.15576171875,8.30078125,-6.89697265625,0.0,-0.18310546875,0.0
10:41:29.347, -0.052636718750000006,0.6507812500000001,8.92431640625,1.6269531250000002,-0.7560546875,9.6181640625,4.7607421875,5.4931640625,-15.31982421875,0.18310546875,0.0,0.1220703125
10:41:29.458, -0.27753906250000004,1.1101562500000002,10.87666015625,1.6700195312500001,-0.7751953125000001,9.6564453125,4.57763671875,9.70458984375,-13.5498046875,0.6103515625,0.06103515625,0.0
10:41:29.570, -0.1435546875,0.1435546875,9.503320312500001,1.6843750000000002,-0.7177734375,9.6181640625,-14.09912109375,0.42724609375,-8.97216796875,1.220703125,0.06103515625,0.0
10:41:29.680, -0.39716796875000004,0.11962890625000001,9.120507812500001,1.6460937500000001,-0.7034179687500001,9.64208984375,-4.8828125,9.58251953125,-19.04296875,0.3662109375,0.06103515625,0.0
10:41:29.790, -0.43066406250000006,-0.0765625,10.3837890625,1.6556640625,-0.6986328125000001,9.61337890625,-0.06103515625,-2.38037109375,-28.1982421875,0.1220703125,0.0,0.0
10:41:29.900, -0.30146484375000004,0.5550781250000001,10.101464843750001,1.6460937500000001,-0.7464843750000001,9.61337890625,-8.30078125,-1.52587890625,-32.53173828125,0.18310546875,0.0,0.0
10:41:30.011, -0.00478515625,0.18662109375000002,9.460253906250001,1.6508789062500002,-0.6747070312500001,9.64208984375,-14.404296875,-0.42724609375,-23.193359375,-0.06103515625,0.0,-0.06103515625
10:41:30.123, -0.3923828125,-0.3349609375,9.66123046875,1.6125976562500002,-0.73212890625,9.63251953125,-10.25390625,13.24462890625,-15.44189453125,-0.6103515625,0.244140625,0.0
10:41:30.235, -0.46894531250000004,-0.11962890625000001,9.72822265625,1.6508789062500002,-0.71298828125,9.622949218750001,2.9296875,-3.41796875,-9.21630859375,0.30517578125,0.0,0.06103515625
10:41:30.346, -0.4498046875,0.11962890625000001,9.890917968750001,1.6365234375000002,-0.74169921875,9.627734375000001,2.0751953125,-1.0986328125,-8.60595703125,0.0,-0.1220703125,0.0
10:41:30.457, -0.35888671875,-0.09091796875000001,9.6373046875,1.6604492187500002,-0.73212890625,9.627734375000001,0.18310546875,-1.220703125,-3.96728515625,-0.244140625,0.0,-0.1220703125
10:41:30.568, -0.34453125,-0.32060546875,9.90048828125,1.63173828125,-0.6986328125000001,9.603808593750001,2.197265625,-3.662109375,-0.48828125,0.42724609375,-0.06103515625,-0.06103515625
10:41:30.679, -0.36845703125,-0.48330078125000003,9.771289062500001,1.63173828125,-0.74169921875,9.68037109375,2.74658203125,-4.7607421875,-2.44140625,0.06103515625,0.1220703125,0.0
10:41:30.791, -0.3923828125,-0.3923828125,9.46982421875,1.6460937500000001,-0.6986328125000001,9.6373046875,6.4697265625,-2.86865234375,-14.7705078125,0.1220703125,-0.1220703125,0.0
10:41:30.903, -0.23925781250000003,-0.153125,9.795214843750001,1.6508789062500002,-0.68427734375,9.63251953125,8.9111328125,1.40380859375,-23.01025390625,0.6103515625,-0.18310546875,0.0
10:41:31.013, -0.095703125,0.052636718750000006,10.30244140625,1.6269531250000002,-0.71298828125,9.651660156250001,9.21630859375,-1.64794921875,-31.67724609375,0.06103515625,0.0,0.1220703125
10:41:31.124, -0.18662109375000002,0.6125,9.83349609375,1.6700195312500001,-0.708203125,9.61337890625,3.60107421875,-10.80322265625,-44.49462890625,0.0,0.0,-0.06103515625
10:41:31.236, 0.0478515625,0.43544921875000003,9.16357421875,1.6460937500000001,-0.71298828125,9.6373046875,10.986328125,-9.8876953125,-49.98779296875,0.1220703125,0.06103515625,0.06103515625
10:41:31.346, 0.38759765625000003,0.8469726562500001,9.11572265625,1.63173828125,-0.66513671875,9.627734375000001,0.91552734375,1.52587890625,-63.29345703125,-0.1220703125,0.0,0.06103515625
10:41:31.457, 0.033496093750000004,0.7512695312500001,9.94833984375,1.6700195312500001,-0.6747070312500001,9.6373046875,10.009765625,13.5498046875,-67.32177734375,-0.06103515625,-0.30517578125,0.1220703125
10:41:31.567, -0.052636718750000006,0.36367187500000003,9.651660156250001,1.6556640625,-0.6794921875000001,9.63251953125,5.92041015625,-15.2587890625,-80.2001953125,0.0,-0.18310546875,0.06103515625
10:41:31.694, -0.38759765625000003,0.8613281250000001,8.51279296875,1.6508789062500002,-0.7034179687500001,9.6564453125,0.18310546875,-3.23486328125,-67.626953125,0.18310546875,0.1220703125,0.0
10:41:31.805, -0.7704101562500001,1.16279296875,10.4029296875,1.665234375,-0.7034179687500001,9.6564453125,-1.220703125,-2.01416015625,-54.3212890625,-0.1220703125,0.0,0.06103515625
10:41:31.916, -0.64599609375,1.26806640625,9.359765625000001,1.6748046875000002,-0.7273437500000001,9.651660156250001,-2.62451171875,-5.859375,-42.3583984375,0.06103515625,0.0,0.0
10:41:32.028, -0.5120117187500001,0.31582031250000003,9.579882812500001,1.6269531250000002,-0.6986328125000001,9.6564453125,-0.1220703125,-6.04248046875,-29.72412109375,-1.220703125,0.1220703125,-0.1220703125
10:41:32.138, -0.3828125,0.765625,9.819140625000001,1.6700195312500001,-0.7369140625,9.6373046875,-5.7373046875,-4.45556640625,-23.74267578125,-0.3662109375,-0.18310546875,-0.1220703125
10:41:32.249, 0.095703125,0.5120117187500001,9.551171875000001,1.6748046875000002,-0.7464843750000001,9.63251953125,2.86865234375,-18.73779296875,-16.6015625,0.06103515625,0.0,0.0
10:41:32.361, 0.5837890625000001,0.7751953125000001,8.981738281250001,1.64130859375,-0.7464843750000001,9.646875000000001,-4.69970703125,-2.685546875,-17.578125,-0.18310546875,-0.1220703125,-0.1220703125
10:41:32.471, 0.11962890625000001,0.5598632812500001,9.795214843750001,1.665234375,-0.7177734375,9.627734375000001,-5.18798828125,17.88330078125,-5.79833984375,0.0,-0.1220703125,-0.1220703125
10:41:32.583, -0.401953125,0.95224609375,10.321582031250001,1.6508789062500002,-0.7369140625,9.68037109375,-6.04248046875,-8.60595703125,-3.96728515625,0.3662109375,-0.18310546875,0.0
10:41:32.694, -0.18183593750000002,0.6029296875000001,9.474609375,1.6748046875000002,-0.7273437500000001,9.666015625,-9.6435546875,2.44140625,-2.5634765625,0.1220703125,-0.18310546875,0.0
10:41:32.805, -0.22968750000000002,0.5359375000000001,9.92919921875,1.6700195312500001,-0.7512695312500001,9.6564453125,-5.37109375,6.16455078125,1.40380859375,-0.18310546875,0.1220703125,0.0
10:41:32.917, -0.23447265625000002,0.0,9.10615234375,1.6843750000000002,-0.74169921875,9.666015625,-11.29150390625,2.25830078125,1.64794921875,0.06103515625,-0.06103515625,0.0
10:41:33.028, -0.39716796875000004,-0.1435546875,9.699511718750001,1.6173828125,-0.74169921875,9.603808593750001,-10.1318359375,5.9814453125,-2.01416015625,0.1220703125,-0.1220703125,-0.06103515625
10:41:33.139, -0.4498046875,-0.052636718750000006,9.910058593750001,1.6700195312500001,-0.7369140625,9.651660156250001,3.2958984375,-0.67138671875,1.28173828125,0.6103515625,-0.1220703125,0.0
10:41:33.251, -0.22490234375,0.24404296875,9.675585937500001,1.6460937500000001,-0.7225585937500001,9.589453125,5.2490234375,-0.79345703125,1.46484375,0.06103515625,0.0,0.0
10:41:33.362, -0.26796875000000003,-0.14833984375,9.742578125000001,1.6604492187500002,-0.7512695312500001,9.61337890625,-8.056640625,-0.54931640625,1.28173828125,0.1220703125,0.0,0.06103515625
10:41:33.472, -0.36367187500000003,-0.14833984375,9.70908203125,1.665234375,-0.7177734375,9.646875000000001,-2.3193359375,1.40380859375,-1.77001953125,0.30517578125,0.06103515625,0.06103515625
10:41:33.584, -0.19619140625,0.153125,9.73779296875,1.6508789062500002,-0.6986328125000001,9.6373046875,0.9765625,-2.197265625,-3.2958984375,-0.18310546875,0.06103515625,0.0
10:41:33.696, -0.2583984375,0.31103515625,9.527246093750001,1.6748046875000002,-0.7273437500000001,9.63251953125,3.5400390625,-2.8076171875,-5.615234375,0.06103515625,0.06103515625,0.0
10:41:33.807, -0.23925781250000003,-0.153125,9.699511718750001,1.6556640625,-0.7034179687500001,9.64208984375,-10.31494140625,2.99072265625,2.685546875,0.18310546875,-0.18310546875,0.06103515625
10:41:33.919, 0.057421875000000004,-0.39716796875000004,10.891015625000001,1.6748046875000002,-0.7369140625,9.627734375000001,1.89208984375,-2.38037109375,10.009765625,0.3662109375,-0.244140625,0.0
10:41:34.031, -0.09091796875000001,0.30146484375000004,8.91474609375,1.6843750000000002,-0.7177734375,9.59423828125,1.5869140625,-10.55908203125,6.89697265625,0.0,-0.06103515625,0.0
10:41:34.142, -0.019140625,-1.2632812500000001,9.40283203125,1.6365234375000002,-0.7177734375,9.670800781250001,-16.29638671875,-7.38525390625,18.4326171875,0.1220703125,-0.06103515625,-0.06103515625
10:41:34.254, 0.28232421875,-0.42587890625,10.02490234375,1.6939453125000001,-0.73212890625,9.68994140625,2.25830078125,-4.5166015625,11.77978515625,-0.06103515625,-0.06103515625,0.0
10:41:34.364, -0.06699218750000001,-0.057421875000000004,9.9435546875,1.63173828125,-0.73212890625,9.579882812500001,10.31494140625,8.48388671875,-16.4794921875,-0.54931640625,0.0,-0.1220703125
10:41:34.476, 0.31582031250000003,0.41630859375,9.7138671875,1.6556640625,-0.73212890625,9.675585937500001,9.09423828125,0.18310546875,-12.939453125,0.0,-0.18310546875,0.0
10:41:34.586, -0.16748046875,0.34453125,9.857421875,1.67958984375,-0.76083984375,9.627734375000001,5.55419921875,13.00048828125,-14.22119140625,0.0,0.1220703125,0.0
10:41:34.699, -0.8182617187500001,0.71298828125,9.551171875000001,1.64130859375,-0.765625,9.61337890625,8.1787109375,25.93994140625,-9.94873046875,0.0,-0.06103515625,-0.06103515625
10:41:34.810, -0.7273437500000001,0.401953125,9.766503906250001,1.6843750000000002,-0.7369140625,9.68994140625,4.8828125,-0.8544921875,3.60107421875,0.3662109375,-0.1220703125,0.06103515625
10:41:34.921, -0.63642578125,0.33974609375000003,9.914843750000001,1.6700195312500001,-0.7034179687500001,9.6181640625,-1.77001953125,4.0283203125,0.6103515625,0.67138671875,-0.18310546875,0.06103515625
10:41:35.033, -0.7704101562500001,0.39716796875000004,9.627734375000001,1.6556640625,-0.73212890625,9.675585937500001,-8.6669921875,-2.74658203125,-0.91552734375,-0.1220703125,0.18310546875,0.0
10:41:35.144, -0.71298828125,0.16269531250000002,9.890917968750001,1.6700195312500001,-0.7273437500000001,9.6564453125,-3.84521484375,-6.28662109375,0.9765625,0.0,0.06103515625,0.06103515625
10:41:35.255, -0.7034179687500001,0.014355468750000001,9.938769531250001,1.665234375,-0.7034179687500001,9.61337890625,-5.9814453125,0.6103515625,7.8125,0.244140625,-0.06103515625,-0.06103515625
10:41:35.366, -0.6316406250000001,0.033496093750000004,9.54638671875,1.665234375,-0.6986328125000001,9.6564453125,-3.11279296875,-2.5634765625,13.97705078125,1.03759765625,-0.06103515625,0.0
10:41:35.477, -0.6220703125,0.0478515625,9.66123046875,1.665234375,-0.708203125,9.622949218750001,1.40380859375,-2.9296875,14.892578125,-0.42724609375,-0.06103515625,0.06103515625
10:41:35.589, -0.50244140625,0.06699218750000001,9.44111328125,1.64130859375,-0.69384765625,9.599023437500001,-5.2490234375,1.52587890625,11.41357421875,-0.18310546875,-0.1220703125,-0.18310546875
10:41:35.700, -0.8374023437500001,-0.32060546875,10.388574218750001,1.6508789062500002,-0.7273437500000001,9.6373046875,15.9912109375,9.033203125,-1.64794921875,0.1220703125,-0.06103515625,-0.06103515625
10:41:35.812, -0.7895507812500001,0.20576171875000002,9.78564453125,1.6508789062500002,-0.7225585937500001,9.627734375000001,21.05712890625,0.91552734375,-27.34375,0.1220703125,-0.06103515625,0.0
10:41:35.923, -1.12451171875,1.1005859375,9.42197265625,1.665234375,-0.7225585937500001,9.61337890625,17.7001953125,7.8125,-36.19384765625,0.30517578125,0.0,-0.1220703125
10:41:36.034, -1.320703125,1.2297851562500002,9.479394531250001,1.6939453125000001,-0.7034179687500001,9.68037109375,-3.5400390625,13.0615234375,-30.517578125,0.48828125,0.0,0.06103515625
10:41:36.146, -1.59345703125,0.5550781250000001,9.503320312500001,1.6365234375000002,-0.6890625,9.6181640625,-16.66259765625,23.13232421875,-5.67626953125,0.0,0.06103515625,0.18310546875
10:41:36.257, -2.2203125000000004,-0.5263671875,10.45556640625,1.6604492187500002,-0.6986328125000001,9.61337890625,-10.55908203125,11.04736328125,5.79833984375,0.1220703125,-0.06103515625,0.0
10:41:36.369, -1.9810546875000001,-0.68427734375,9.034375,1.6556640625,-0.7369140625,9.6181640625,-15.56396484375,3.60107421875,13.18359375,0.1220703125,-0.18310546875,0.0
10:41:36.480, -2.46435546875,-0.74169921875,9.30712890625,1.6700195312500001,-0.6890625,9.651660156250001,0.0,13.0615234375,4.82177734375,0.1220703125,0.0,-0.06103515625
10:41:36.591, -2.660546875,-0.31582031250000003,9.94833984375,1.6604492187500002,-0.7225585937500001,9.6564453125,0.91552734375,12.939453125,-7.87353515625,0.06103515625,-0.1220703125,-0.06103515625
10:41:36.702, -2.46435546875,-0.33974609375000003,9.857421875,1.6843750000000002,-0.74169921875,9.651660156250001,-5.55419921875,-3.90625,-7.75146484375,-0.54931640625,0.0,0.0
10:41:36.813, -2.6749023437500004,-0.9187500000000001,9.30234375,1.6365234375000002,-0.7177734375,9.599023437500001,-1.28173828125,-1.40380859375,-8.6669921875,0.1220703125,0.0,-0.06103515625
10:41:36.925, -2.32080078125,-0.9378906250000001,9.0822265625,1.665234375,-0.6890625,9.6373046875,0.54931640625,4.8828125,-9.33837890625,0.244140625,-0.06103515625,0.0
10:41:37.035, -2.47392578125,-0.6412109375,9.220996093750001,1.665234375,-0.7560546875,9.58466796875,-0.30517578125,2.50244140625,-4.0283203125,-2.13623046875,0.3662109375,0.0
10:41:37.148, -2.70361328125,-0.9139648437500001,9.24970703125,1.665234375,-0.7751953125000001,9.651660156250001,-6.7138671875,13.916015625,-1.40380859375,-1.0986328125,0.18310546875,-0.06103515625
10:41:37.259, -2.99072265625,-1.25849609375,9.359765625000001,1.63173828125,-0.7751953125000001,9.6373046875,-3.41796875,10.009765625,-3.23486328125,-0.06103515625,-0.18310546875,0.0
10:41:37.371, -3.2251953125000004,-1.1580078125000002,9.508105468750001,1.6748046875000002,-0.784765625,9.61337890625,0.91552734375,7.62939453125,-7.75146484375,1.15966796875,-0.79345703125,-0.06103515625
10:41:37.482, -3.2060546875000004,-1.2154296875000001,9.2353515625,1.665234375,-0.7512695312500001,9.7138671875,0.18310546875,-3.60107421875,-6.40869140625,1.46484375,-0.18310546875,0.0
10:41:37.594, -3.1294921875000004,-1.378125,9.13486328125,1.6748046875000002,-0.7464843750000001,9.603808593750001,2.685546875,-1.52587890625,-8.1787109375,0.732421875,-0.18310546875,-0.06103515625
10:41:37.705, -2.9811523437500003,-1.0862304687500002,9.096582031250001,1.6748046875000002,-0.73212890625,9.60859375,4.8828125,-0.67138671875,-4.69970703125,0.244140625,0.0,0.0
10:41:37.815, -2.9333007812500003,-1.0383789062500002,9.048730468750001,1.6843750000000002,-0.6986328125000001,9.675585937500001,4.150390625,1.40380859375,-3.23486328125,0.732421875,0.0,0.18310546875
10:41:37.927, -2.9093750000000003,-0.88046875,9.364550781250001,1.6365234375000002,-0.69384765625,9.6373046875,6.2255859375,4.82177734375,-5.92041015625,0.6103515625,0.42724609375,0.18310546875
10:41:38.039, -2.8423828125000004,-1.26806640625,9.4650390625,1.6508789062500002,-0.69384765625,9.63251953125,10.3759765625,10.19287109375,-15.0146484375,0.54931640625,0.54931640625,-0.1220703125
10:41:38.150, -3.7611328125,-0.11005859375,9.30712890625,1.665234375,-0.6603515625,9.599023437500001,0.06103515625,12.02392578125,-9.82666015625,0.67138671875,-0.3662109375,-0.42724609375
10:41:38.261, -3.8999023437500004,-0.80869140625,9.1779296875,1.6748046875000002,-0.69384765625,9.63251953125,0.9765625,11.77978515625,-3.11279296875,0.30517578125,0.0,-0.48828125
10:41:38.372, -3.694140625,-0.9905273437500001,9.220996093750001,1.5886718750000002,-0.6986328125000001,9.56552734375,-22.27783203125,0.42724609375,8.9111328125,-4.21142578125,-2.8076171875,0.0
10:41:38.484, -3.5888671875000004,-2.84716796875,8.287890625000001,1.72744140625,-0.7560546875,9.747363281250001,-23.86474609375,-0.8544921875,22.8271484375,-1.0986328125,-2.13623046875,-0.06103515625
10:41:38.596, -3.7946289062500003,-1.1340820312500002,9.192285156250001,1.72744140625,-0.7704101562500001,9.5607421875,3.84521484375,5.55419921875,1.64794921875,-0.3662109375,-1.89208984375,-0.06103515625
10:41:38.708, -3.71806640625,-1.0383789062500002,8.72333984375,1.7609375,-0.7991210937500001,9.68515625,10.19287109375,-0.9765625,5.18798828125,0.732421875,-1.0986328125,-0.18310546875
10:41:38.820, -3.7084960937500004,-0.3541015625,8.938671875,1.8040039062500002,-0.784765625,9.66123046875,2.3193359375,-1.46484375,2.5634765625,0.54931640625,0.0,0.0
10:41:38.930, -3.502734375,-1.10537109375,8.5654296875,1.7800781250000002,-0.7369140625,9.58466796875,-3.72314453125,-1.89208984375,3.47900390625,0.67138671875,0.0,0.1220703125
10:41:39.043, -3.8711914062500004,-1.3685546875,8.713769531250001,1.8183593750000002,-0.708203125,9.66123046875,-6.9580078125,4.5166015625,6.8359375,0.79345703125,0.3662109375,0.1220703125
10:41:39.154, -4.134375,-1.12451171875,9.096582031250001,1.7417968750000001,-0.6986328125000001,9.6564453125,1.0986328125,5.4931640625,2.62451171875,0.732421875,0.1220703125,0.06103515625
10:41:39.265, -4.1248046875,-1.0958007812500001,8.7568359375,1.7657226562500001,-0.7751953125000001,9.603808593750001,-4.8828125,3.0517578125,-0.18310546875,0.42724609375,0.0,0.0
10:41:39.376, -4.201367187500001,-1.36376953125,8.9673828125,1.7083007812500002,-0.6747070312500001,9.589453125,1.46484375,0.48828125,2.38037109375,0.30517578125,0.06103515625,0.0
10:41:39.488, -4.273144531250001,-1.2728515625,8.632421875,1.8901367187500002,-0.9378906250000001,9.780859375,0.54931640625,-0.79345703125,1.953125,0.0,0.48828125,0.06103515625
10:41:39.599, -3.9429687500000004,-1.1580078125000002,8.79990234375,1.7800781250000002,-0.7225585937500001,9.651660156250001,1.5869140625,-2.86865234375,1.5869140625,0.06103515625,0.06103515625,0.06103515625
10:41:39.711, -3.90947265625,-1.1436523437500001,8.5845703125,1.8183593750000002,-0.82783203125,9.6181640625,1.0986328125,-1.953125,1.5869140625,0.0,-0.06103515625,0.06103515625
10:41:39.822, -3.9525390625,-1.15322265625,8.7568359375,1.7465820312500002,-0.7034179687500001,9.627734375000001,2.99072265625,-0.67138671875,0.06103515625,0.54931640625,0.3662109375,0.0
10:41:39.933, -3.9860351562500003,-1.06708984375,8.75205078125,1.7226562500000002,-0.68427734375,9.622949218750001,1.5869140625,-1.28173828125,0.6103515625,0.0,0.18310546875,0.0
10:41:40.044, -3.9716796875000004,-1.02880859375,8.7568359375,1.7226562500000002,-0.708203125,9.646875000000001,1.52587890625,-1.15966796875,0.6103515625,0.30517578125,0.3662109375,0.1220703125
10:41:40.155, -3.8568359375,-1.0048828125,8.862109375000001,1.703515625,-0.6603515625,9.603808593750001,-1.03759765625,-3.5400390625,0.6103515625,0.54931640625,0.3662109375,0.0
10:41:40.265, -3.8424804687500003,-1.0814453125,8.9865234375,1.7322265625000002,-0.68427734375,9.6373046875,-0.67138671875,0.30517578125,-1.46484375,0.30517578125,0.0,0.0
10:41:40.377, -3.81376953125,-1.0958007812500001,8.689843750000001,1.6939453125000001,-0.6555664062500001,9.60859375,-0.6103515625,-0.18310546875,-0.48828125,0.1220703125,-0.1220703125,0.0
10:41:40.488, -3.8185546875000003,-0.9809570312500001,8.905175781250001,1.72744140625,-0.68427734375,9.622949218750001,1.0986328125,0.9765625,-0.48828125,0.18310546875,0.06103515625,0.0
10:41:40.599, -3.8041992187500004,-0.95224609375,8.881250000000001,1.72744140625,-0.68427734375,9.6564453125,0.42724609375,-1.77001953125,-0.244140625,0.18310546875,-0.244140625,0.0
10:41:40.710, -3.7994140625000004,-0.9809570312500001,8.8046875,1.7226562500000002,-0.66513671875,9.603808593750001,-1.03759765625,-1.220703125,1.953125,0.06103515625,0.06103515625,0.0
10:41:40.821, -3.6989257812500003,-1.0431640625,8.823828125,1.7083007812500002,-0.66513671875,9.666015625,-0.67138671875,-2.62451171875,0.48828125,0.1220703125,0.0,0.0
10:41:40.933, -3.694140625,-1.02880859375,8.87646484375,1.72744140625,-0.6747070312500001,9.6181640625,0.1220703125,-0.18310546875,-0.67138671875,0.0,0.0,-0.06103515625
10:41:41.045, -3.76591796875,-0.9331054687500001,8.99130859375,1.7226562500000002,-0.6747070312500001,9.60859375,0.3662109375,-0.79345703125,0.1220703125,0.0,0.1220703125,-0.06103515625
10:41:41.157, -3.7276367187500004,-1.06708984375,8.938671875,1.6987304687500002,-0.6794921875000001,9.64208984375,-1.03759765625,0.3662109375,0.0,0.06103515625,0.0,0.1220703125
10:41:41.267, -3.68935546875,-1.12451171875,8.814257812500001,1.73701171875,-0.6412109375,9.627734375000001,0.0,0.67138671875,-0.48828125,0.18310546875,0.06103515625,0.0
10:41:41.377, -3.8281250000000004,-1.02880859375,8.99609375,1.6939453125000001,-0.6412109375,9.646875000000001,0.91552734375,-0.48828125,-1.52587890625,0.06103515625,0.0,-0.06103515625
10:41:41.490, -3.6606445312500004,-1.01923828125,8.82861328125,1.7226562500000002,-0.6603515625,9.6181640625,-0.1220703125,-0.6103515625,0.3662109375,0.0,0.0,-0.06103515625
10:41:41.601, -3.64150390625,-0.9283203125,8.8908203125,1.7322265625000002,-0.66513671875,9.6181640625,-0.9765625,-0.79345703125,-1.64794921875,0.0,0.0,0.0
10:41:41.712, -3.7037109375000004,-1.1005859375,8.862109375000001,1.7083007812500002,-0.66513671875,9.651660156250001,-0.48828125,-0.244140625,1.0986328125,0.0,0.0,0.0
10:41:41.823, -3.6750000000000003,-1.0862304687500002,8.976953125000001,1.7322265625000002,-0.6747070312500001,9.627734375000001,-0.732421875,-1.15966796875,-0.244140625,0.0,0.0,0.0
10:41:41.935, -3.6127929687500004,-1.0383789062500002,8.81904296875,1.6939453125000001,-0.66513671875,9.6181640625,0.0,-2.5634765625,-0.8544921875,0.0,0.0,0.0
10:41:42.046, -3.7084960937500004,-1.0383789062500002,8.957812500000001,1.7130859375,-0.6316406250000001,9.651660156250001,1.03759765625,-0.1220703125,0.48828125,0.0,0.0,0.0
10:41:42.157, -3.5362304687500004,-0.9953125,8.881250000000001,1.7465820312500002,-0.6412109375,9.646875000000001,-1.77001953125,-2.9296875,1.03759765625,0.0,0.0,0.0
10:41:42.268, -3.5314453125000003,-0.9905273437500001,8.957812500000001,1.703515625,-0.66513671875,9.6373046875,0.42724609375,-0.244140625,-0.06103515625,0.0,0.0,0.0
10:41:42.379, -3.5075195312500003,-0.9331054687500001,8.957812500000001,1.6987304687500002,-0.6220703125,9.60859375,-0.732421875,-1.3427734375,0.54931640625,0.0,0.0,0.0
10:41:42.491, -3.4692382812500004,-1.0383789062500002,8.92431640625,1.7083007812500002,-0.64599609375,9.603808593750001,-2.197265625,0.54931640625,0.244140625,0.0,0.0,0.0
10:41:42.602, -3.5984375,-1.1580078125000002,8.957812500000001,1.68916015625,-0.6603515625,9.651660156250001,-0.9765625,2.685546875,0.244140625,0.0,0.0,0.0
10:41:42.712, -3.6558593750000004,-1.17236328125,8.8716796875,1.72744140625,-0.64599609375,9.622949218750001,-1.708984375,1.708984375,-1.15966796875,0.0,0.0,0.0
10:41:42.823, -3.6367187500000004,-1.15322265625,8.94345703125,1.72744140625,-0.6412109375,9.6373046875,-0.42724609375,1.3427734375,-0.67138671875,0.0,0.0,0.0
10:41:42.935, -3.7037109375000004,-1.1771484375,8.84775390625,1.6843750000000002,-0.669921875,9.622949218750001,1.0986328125,1.15966796875,0.67138671875,0.0,0.0,0.0
10:41:43.046, -3.7611328125,-1.0958007812500001,8.9673828125,1.7322265625000002,-0.6316406250000001,9.651660156250001,1.40380859375,1.40380859375,-1.46484375,0.0,0.0,0.0
10:41:43.158, -3.7037109375000004,-1.091015625,8.886035156250001,1.7130859375,-0.669921875,9.63251953125,1.03759765625,1.52587890625,-0.67138671875,0.0,0.0,0.0
10:41:43.268, -3.7228515625000003,-1.0000976562500001,8.823828125,1.72744140625,-0.6268554687500001,9.646875000000001,-0.732421875,1.46484375,-0.06103515625,0.0,0.0,0.0
10:41:43.379, -4.0003906250000005,-1.091015625,9.1779296875,1.7322265625000002,-0.61728515625,9.622949218750001,-2.25830078125,-0.54931640625,0.244140625,0.0,0.0,0.0
10:41:43.490, -3.88076171875,-0.95224609375,9.029589843750001,1.6939453125000001,-0.6507812500000001,9.627734375000001,-3.662109375,-7.26318359375,3.7841796875,0.1220703125,0.244140625,0.1220703125
10:41:43.602, -3.5410156250000004,-1.2345703125,9.06787109375,1.6748046875000002,-0.61728515625,9.56552734375,-2.9296875,-13.12255859375,6.77490234375,1.03759765625,0.54931640625,0.06103515625
10:41:43.713, -3.4692382812500004,-0.87568359375,9.474609375,1.6700195312500001,-0.58857421875,9.6564453125,-5.0048828125,-9.521484375,8.4228515625,-1.0986328125,-0.9765625,0.0
10:41:43.824, -3.78505859375,-0.58857421875,9.3310546875,1.6604492187500002,-0.6268554687500001,9.555957031250001,-3.0517578125,-13.24462890625,19.22607421875,-2.685546875,-1.220703125,0.0
10:41:43.934, -2.75146484375,-1.1005859375,9.4650390625,1.703515625,-0.669921875,9.6373046875,1.5869140625,-30.6396484375,32.40966796875,-0.79345703125,-0.8544921875,0.06103515625
10:41:44.046, -1.6556640625,-0.9570312500000001,9.240136718750001,1.72744140625,-0.6603515625,9.63251953125,-1.64794921875,-36.376953125,27.099609375,0.06103515625,0.18310546875,0.0
10:41:44.156, -1.48818359375,-1.36376953125,9.2736328125,1.7130859375,-0.6412109375,9.771289062500001,-5.2490234375,-15.13671875,12.6953125,-0.244140625,0.0,0.1220703125
10:41:44.268, -1.50732421875,-1.4451171875000002,9.16357421875,1.7226562500000002,-0.708203125,9.58466796875,-4.150390625,-15.31982421875,3.47900390625,0.18310546875,0.48828125,0.244140625
10:41:44.379, -1.20107421875,-1.3015625000000002,9.06787109375,1.64130859375,-0.6986328125000001,9.59423828125,-6.53076171875,2.9296875,2.9296875,0.18310546875,-0.06103515625,0.0
10:41:44.489, -1.3494140625000002,-1.1915039062500001,9.814355468750001,1.7083007812500002,-0.6316406250000001,9.651660156250001,-5.92041015625,7.75146484375,1.220703125,0.244140625,0.0,0.244140625
10:41:44.602, -1.6987304687500002,-1.50732421875,9.34541015625,1.67958984375,-0.6268554687500001,9.627734375000001,3.173828125,14.70947265625,-4.5166015625,-0.1220703125,0.244140625,0.1220703125
10:41:44.712, -1.97626953125,-1.03359375,9.484179687500001,1.6843750000000002,-0.6555664062500001,9.651660156250001,10.986328125,12.6953125,-8.85009765625,0.0,0.1220703125,0.0
10:41:44.824, -2.0289062500000004,-0.80390625,9.316699218750001,1.665234375,-0.6603515625,9.675585937500001,7.75146484375,15.80810546875,-7.01904296875,-0.06103515625,0.1220703125,0.0
10:41:44.935, -2.66533203125,-0.9474609375,9.68037109375,1.7130859375,-0.66513671875,9.60859375,-3.5400390625,9.70458984375,-3.41796875,-0.244140625,-0.18310546875,0.06103515625
10:41:45.046, -2.8998046875,-1.0383789062500002,9.197070312500001,1.7178710937500001,-0.6412109375,9.670800781250001,-0.18310546875,6.40869140625,-1.8310546875,-0.06103515625,-0.1220703125,-0.06103515625
10:41:45.157, -2.70361328125,-1.01923828125,9.3693359375,1.6700195312500001,-0.6747070312500001,9.622949218750001,-4.150390625,-4.5166015625,-1.28173828125,0.1220703125,0.0,0.18310546875
10:41:45.269, -2.5313476562500004,-0.9474609375,9.08701171875,1.6843750000000002,-0.6507812500000001,9.627734375000001,-4.82177734375,-3.23486328125,1.64794921875,0.244140625,0.48828125,0.0
10:41:45.380, -2.5504882812500003,-1.1484375,9.335839843750001,1.6125976562500002,-0.66513671875,9.622949218750001,-2.86865234375,-3.662109375,2.197265625,0.0,0.0,-0.06103515625
10:41:45.491, -2.5983398437500003,-1.225,9.61337890625,1.6939453125000001,-0.6603515625,9.58466796875,-2.01416015625,-3.90625,3.96728515625,-0.79345703125,-0.244140625,-0.3662109375
10:41:45.602, -2.4308593750000003,-1.320703125,9.5703125,1.7322265625000002,-0.6412109375,9.694726562500001,4.69970703125,-7.99560546875,8.4228515625,0.06103515625,-0.54931640625,0.0
10:41:45.714, -2.1341796875,-0.6986328125000001,9.527246093750001,1.6460937500000001,-0.6412109375,9.61337890625,3.5400390625,-32.470703125,18.24951171875,-0.06103515625,-0.18310546875,-0.18310546875
10:41:45.825, -1.58388671875,-0.6220703125,10.35029296875,1.6604492187500002,-0.64599609375,9.646875000000001,-1.3427734375,-48.33984375,27.099609375,0.244140625,-0.244140625,0.0
10:41:45.936, -0.46894531250000004,-0.8900390625000001,9.68994140625,1.7226562500000002,-0.6412109375,9.73779296875,6.89697265625,-50.84228515625,30.3955078125,0.18310546875,0.1220703125,0.0
10:41:46.047, 0.34931640625000004,-0.8900390625000001,9.192285156250001,1.6556640625,-0.6412109375,9.6564453125,3.84521484375,-30.94482421875,25.93994140625,-0.06103515625,0.0,0.1220703125
10:41:46.158, 0.401953125,-1.05751953125,9.503320312500001,1.6748046875000002,-0.6316406250000001,9.670800781250001,7.8125,-11.41357421875,12.20703125,-1.52587890625,0.244140625,0.0
10:41:46.269, 0.68427734375,-0.50244140625,10.1349609375,1.6700195312500001,-0.6220703125,9.622949218750001,9.33837890625,-14.892578125,-1.5869140625,-0.54931640625,0.1220703125,0.0
10:41:46.380, 1.17236328125,-0.153125,9.5224609375,1.6556640625,-0.6747070312500001,9.64208984375,8.7890625,-20.6298828125,-5.31005859375,-0.91552734375,0.0,0.0
10:41:46.490, 1.5551757812500002,0.30625,9.589453125,1.67958984375,-0.6890625,9.646875000000001,-0.67138671875,-12.02392578125,-4.0283203125,-0.06103515625,-0.18310546875,0.0
10:41:46.602, 1.7130859375,0.10048828125,9.3310546875,1.665234375,-0.6794921875000001,9.651660156250001,-1.953125,-5.79833984375,1.15966796875,-0.3662109375,0.0,0.06103515625
10:41:46.712, 1.73701171875,-0.033496093750000004,9.622949218750001,1.6269531250000002,-0.6890625,9.627734375000001,-4.08935546875,2.197265625,3.72314453125,-1.28173828125,-0.06103515625,-0.1220703125
10:41:46.822, 1.4690429687500002,-0.33017578125,9.66123046875,1.665234375,-0.7512695312500001,9.589453125,-2.38037109375,1.40380859375,3.662109375,-2.13623046875,0.06103515625,0.0
10:41:46.933, 1.4786132812500001,-0.45458984375000006,9.82392578125,1.68916015625,-0.7177734375,9.675585937500001,-0.8544921875,2.44140625,1.28173828125,-0.18310546875,-0.1220703125,0.0
10:41:47.044, 1.3876953125,-0.55029296875,9.70908203125,1.6221679687500001,-0.765625,9.622949218750001,1.89208984375,3.60107421875,-2.74658203125,0.06103515625,-0.42724609375,0.0
10:41:47.155, 1.2345703125,-0.0765625,9.838281250000001,1.6365234375000002,-0.7369140625,9.60859375,6.40869140625,7.75146484375,-9.27734375,0.8544921875,-0.244140625,0.0
10:41:47.267, 0.97138671875,-0.00478515625,9.99619140625,1.6556640625,-0.74169921875,9.589453125,-1.40380859375,5.06591796875,-3.72314453125,0.732421875,-0.1220703125,0.0
10:41:47.379, 0.9953125,-0.033496093750000004,9.704296875,1.6700195312500001,-0.7034179687500001,9.6373046875,-1.77001953125,0.732421875,1.5869140625,0.0,0.0,0.06103515625
10:41:47.489, 1.0623046875000002,-0.19140625,9.599023437500001,1.6365234375000002,-0.69384765625,9.627734375000001,-1.3427734375,-0.91552734375,4.0283203125,-0.8544921875,0.1220703125,0.0
10:41:47.601, 1.091015625,-0.1244140625,9.718652343750001,1.6508789062500002,-0.7369140625,9.651660156250001,0.9765625,2.86865234375,-0.3662109375,-1.3427734375,0.06103515625,0.0
10:41:47.713, 0.976171875,-0.153125,9.82392578125,1.6508789062500002,-0.7369140625,9.603808593750001,0.3662109375,2.01416015625,-1.40380859375,-0.6103515625,0.18310546875,-0.1220703125
10:41:47.824, 1.0144531250000002,-0.09091796875000001,9.7138671875,1.665234375,-0.7512695312500001,9.6564453125,-0.91552734375,0.48828125,-0.06103515625,-0.30517578125,0.0,0.06103515625
10:41:47.935, 1.0000976562500001,-0.17705078125,9.670800781250001,1.6460937500000001,-0.76083984375,9.59423828125,-0.1220703125,1.5869140625,0.3662109375,0.244140625,-0.30517578125,0.0
10:41:48.047, 0.9666015625000001,-0.13398437500000002,9.68037109375,1.6508789062500002,-0.7751953125000001,9.579882812500001,0.06103515625,1.46484375,-0.8544921875,0.54931640625,-0.3662109375,0.06103515625
10:41:48.157, 0.9187500000000001,-0.02392578125,9.70908203125,1.665234375,-0.74169921875,9.622949218750001,-0.30517578125,1.3427734375,-1.64794921875,0.0,-0.06103515625,0.0
10:41:48.268, 0.90439453125,-0.13876953125000002,9.838281250000001,1.6700195312500001,-0.7464843750000001,9.61337890625,-1.0986328125,0.3662109375,0.9765625,0.0,0.0,0.0
10:41:48.378, 0.9378906250000001,-0.18662109375000002,9.622949218750001,1.67958984375,-0.74169921875,9.60859375,-0.67138671875,1.5869140625,1.46484375,0.0,-0.06103515625,0.06103515625
10:41:48.489, 0.9331054687500001,-0.20576171875000002,9.6564453125,1.68916015625,-0.7369140625,9.646875000000001,-0.42724609375,1.46484375,0.6103515625,-0.06103515625,-0.06103515625,-0.06103515625
10:41:48.600, 0.8613281250000001,-0.18662109375000002,9.73779296875,1.6460937500000001,-0.73212890625,9.603808593750001,-0.42724609375,1.5869140625,0.1220703125,0.0,-0.1220703125,0.0
10:41:48.711, 0.8708984375000001,-0.13398437500000002,9.7138671875,1.6843750000000002,-0.7225585937500001,9.64208984375,-0.06103515625,0.91552734375,0.0,0.0,0.0,0.0
10:41:48.822, 0.8852539062500001,-0.17705078125,9.63251953125,1.5982421875000001,-0.73212890625,9.39326171875,-0.6103515625,2.99072265625,0.244140625,0.48828125,0.244140625,-0.06103515625
10:41:48.933, 0.85654296875,-0.09091796875000001,9.742578125000001,1.6987304687500002,-0.708203125,9.58466796875,-0.30517578125,4.150390625,0.48828125,0.244140625,-0.91552734375,0.0
10:41:49.045, 0.7895507812500001,-0.21533203125000003,9.589453125,1.665234375,-0.71298828125,9.622949218750001,-0.91552734375,6.28662109375,3.0517578125,0.244140625,0.18310546875,-0.06103515625
10:41:49.156, 0.8134765625000001,-0.033496093750000004,9.30234375,1.67958984375,-0.6986328125000001,9.63251953125,3.173828125,9.27734375,14.58740234375,-0.30517578125,0.18310546875,0.0
10:41:49.267, 0.0478515625,-0.172265625,9.5607421875,1.6604492187500002,-0.71298828125,9.627734375000001,1.03759765625,29.60205078125,14.16015625,-0.18310546875,0.0,0.0
10:41:49.378, -0.669921875,-0.17705078125,10.130175781250001,1.68916015625,-0.6890625,9.66123046875,-0.732421875,24.84130859375,9.8876953125,-0.3662109375,-0.06103515625,-0.06103515625
10:41:49.489, -0.9139648437500001,-0.22968750000000002,9.914843750000001,1.665234375,-0.71298828125,9.6181640625,-2.5634765625,14.09912109375,10.8642578125,0.1220703125,0.0,0.0
10:41:49.601, -1.225,-0.42587890625,9.90048828125,1.68916015625,-0.69384765625,9.64208984375,0.67138671875,13.85498046875,5.18798828125,0.18310546875,-0.1220703125,0.0
10:41:49.713, -1.244140625,-0.23925781250000003,9.7521484375,1.6939453125000001,-0.6890625,9.622949218750001,0.30517578125,-2.0751953125,-4.57763671875,0.06103515625,-0.18310546875,0.0
10:41:49.822, -0.8708984375000001,-0.29189453125000003,9.675585937500001,1.6748046875000002,-0.7177734375,9.651660156250001,1.220703125,-9.1552734375,-6.28662109375,-0.06103515625,0.0,-0.1220703125
10:41:49.933, -0.8613281250000001,-0.3828125,9.130078125,1.6748046875000002,-0.69384765625,9.651660156250001,1.3427734375,0.0,-11.90185546875,0.244140625,-0.06103515625,0.0
10:41:50.045, -1.1484375,-0.23925781250000003,9.780859375,1.6939453125000001,-0.6986328125000001,9.6181640625,-6.103515625,1.953125,-18.85986328125,-0.18310546875,-0.06103515625,0.0
10:41:50.157, -0.85654296875,-0.3541015625,9.9052734375,1.67958984375,-0.6890625,9.694726562500001,-6.7138671875,-3.7841796875,-19.83642578125,-0.1220703125,0.06103515625,0.06103515625
10:41:50.267, -0.31582031250000003,0.0765625,9.39326171875,1.6843750000000002,-0.708203125,9.6564453125,0.67138671875,-12.14599609375,11.04736328125,0.0,0.0,0.0
10:41:50.379, -0.36845703125,-0.0765625,10.197167968750001,1.6939453125000001,-0.6794921875000001,9.603808593750001,0.48828125,-17.02880859375,24.4140625,0.0,0.0,0.0
10:41:50.490, -0.248828125,-0.95224609375,8.91474609375,1.6987304687500002,-0.71298828125,9.6564453125,2.25830078125,-10.8642578125,21.97265625,0.0,0.0,0.0
10:41:50.602, -0.516796875,-0.2009765625,9.4171875,1.68916015625,-0.708203125,9.622949218750001,5.37109375,25.20751953125,-1.40380859375,0.0,0.0,0.0
10:41:50.712, -0.9283203125,-0.014355468750000001,10.393359375000001,1.68916015625,-0.7225585937500001,9.627734375000001,-1.220703125,12.02392578125,-7.32421875,0.0,0.0,0.0
10:41:50.824, -1.12451171875,-0.11484375000000001,9.97705078125,1.68916015625,-0.7034179687500001,9.6181640625,0.18310546875,0.9765625,-4.5166015625,0.0,0.0,0.0
10:41:50.934, -0.8708984375000001,-0.14833984375,9.72822265625,1.6843750000000002,-0.7273437500000001,9.627734375000001,-6.89697265625,-6.4697265625,-5.0048828125,0.0,0.0,0.0
10:41:51.045, -0.5598632812500001,-0.23925781250000003,9.843066406250001,1.6556640625,-0.7273437500000001,9.59423828125,-2.0751953125,0.3662109375,-3.41796875,-0.6103515625,0.1220703125,0.0
10:41:51.157, -0.7034179687500001,-0.37324218750000004,9.46982421875,1.6748046875000002,-0.6986328125000001,9.64208984375,0.1220703125,2.0751953125,-0.8544921875,0.0,-0.06103515625,-0.06103515625
10:41:51.267, -1.0862304687500002,-0.2009765625,10.417285156250001,1.6700195312500001,-0.73212890625,9.64208984375,3.0517578125,3.60107421875,0.48828125,-0.3662109375,0.06103515625,0.0
10:41:51.379, -0.7034179687500001,-0.39716796875000004,9.24970703125,1.6939453125000001,-0.7369140625,9.61337890625,4.7607421875,-6.103515625,1.5869140625,0.3662109375,-0.1220703125,0.0
10:41:51.491, -0.56943359375,-0.19140625,9.64208984375,1.665234375,-0.7464843750000001,9.622949218750001,0.06103515625,3.90625,-3.173828125,0.18310546875,-0.06103515625,-0.06103515625
10:41:51.603, -0.68427734375,-0.33017578125,9.54638671875,1.67958984375,-0.7034179687500001,9.6564453125,1.89208984375,6.65283203125,-0.30517578125,-0.1220703125,0.1220703125,0.0
10:41:51.713, -0.9091796875000001,-0.18662109375000002,9.670800781250001,1.6939453125000001,-0.7273437500000001,9.675585937500001,1.77001953125,3.662109375,-3.84521484375,0.0,0.0,0.06103515625
10:41:51.825, -0.9570312500000001,-0.20576171875000002,9.843066406250001,1.6508789062500002,-0.7225585937500001,9.59423828125,-0.91552734375,1.8310546875,-1.28173828125,-0.18310546875,-0.06103515625,0.0
10:41:51.937, -0.9331054687500001,-0.19619140625,9.61337890625,1.6604492187500002,-0.7273437500000001,9.627734375000001,0.06103515625,0.9765625,-1.5869140625,-0.48828125,0.18310546875,-0.06103515625
10:41:52.048, -0.976171875,0.02392578125,9.8,1.6700195312500001,-0.7560546875,9.622949218750001,2.8076171875,3.23486328125,0.30517578125,0.0,0.06103515625,0.0
10:41:52.159, -1.1580078125000002,-0.6029296875000001,9.68994140625,1.6700195312500001,-0.7369140625,9.60859375,4.21142578125,7.2021484375,2.13623046875,0.244140625,-0.1220703125,0.1220703125
10:41:52.269, -1.2058593750000002,0.10048828125,9.1587890625,1.6556640625,-0.74169921875,9.603808593750001,6.4697265625,-4.08935546875,-1.64794921875,0.06103515625,0.0,0.06103515625
10:41:52.381, -1.0479492187500001,-0.16269531250000002,10.053613281250001,1.6843750000000002,-0.7512695312500001,9.63251953125,-4.82177734375,-6.591796875,-3.173828125,0.0,0.0,0.1220703125
10:41:52.493, -0.73212890625,-0.1244140625,9.412402343750001,1.6365234375000002,-0.7177734375,9.6373046875,-2.62451171875,-4.94384765625,-2.44140625,0.244140625,-0.1220703125,-0.06103515625
10:41:52.604, -0.63642578125,0.019140625,9.8095703125,1.68916015625,-0.7512695312500001,9.627734375000001,2.86865234375,-7.87353515625,-4.638671875,0.18310546875,-0.1220703125,0.0
10:41:52.716, -0.45458984375000006,-0.019140625,9.59423828125,1.6460937500000001,-0.7225585937500001,9.59423828125,-1.708984375,-2.5634765625,-2.99072265625,0.3662109375,-0.1220703125,-0.06103515625
10:41:52.827, -0.3923828125,-0.028710937500000002,9.589453125,1.6700195312500001,-0.66513671875,9.627734375000001,-2.50244140625,-1.5869140625,0.54931640625,0.6103515625,-0.30517578125,0.06103515625
10:41:52.938, -0.4498046875,-0.19140625,9.890917968750001,1.6748046875000002,-0.7034179687500001,9.63251953125,-2.74658203125,-0.79345703125,1.64794921875,0.42724609375,-0.06103515625,0.0
10:41:53.050, -0.5120117187500001,-0.33017578125,9.790429687500001,1.67958984375,-0.7177734375,9.599023437500001,-2.5634765625,0.244140625,2.9296875,-0.06103515625,0.0,0.06103515625
10:41:53.161, -0.52158203125,-0.22968750000000002,9.780859375,1.6843750000000002,-0.6747070312500001,9.627734375000001,-1.15966796875,0.9765625,-0.3662109375,-0.244140625,0.06103515625,0.0
10:41:53.272, -0.49287109375000004,-0.21533203125000003,9.7138671875,1.6700195312500001,-0.708203125,9.646875000000001,0.0,1.46484375,0.0,0.244140625,-0.244140625,0.0
10:41:53.383, -0.5263671875,-0.33017578125,9.75693359375,1.67958984375,-0.6890625,9.59423828125,0.8544921875,0.91552734375,0.54931640625,0.3662109375,-0.1220703125,-0.06103515625
10:41:53.495, -0.5646484375,-0.248828125,9.589453125,1.7083007812500002,-0.6794921875000001,9.646875000000001,0.48828125,0.67138671875,0.06103515625,0.0,-0.18310546875,0.0
10:41:53.607, -0.5455078125,-0.30625,9.742578125000001,1.7083007812500002,-0.6890625,9.666015625,-0.732421875,-0.8544921875,-0.48828125,0.3662109375,0.0,0.0
10:41:53.718, -0.5790039062500001,-0.26796875000000003,9.766503906250001,1.7083007812500002,-0.669921875,9.6373046875,-0.3662109375,-0.3662109375,-2.0751953125,0.18310546875,-0.06103515625,0.06103515625
10:41:53.829, -0.5120117187500001,-0.26318359375,9.627734375000001,1.6748046875000002,-0.6794921875000001,9.627734375000001,-0.67138671875,-0.06103515625,-0.06103515625,0.1220703125,0.06103515625,0.0
10:41:53.940, -0.23925781250000003,-0.24404296875,9.30712890625,1.68916015625,-0.69384765625,9.6564453125,2.3193359375,10.1318359375,-0.3662109375,0.0,0.06103515625,0.06103515625
10:41:54.051, -0.7943359375000001,-0.12919921875,10.388574218750001,1.6604492187500002,-0.69384765625,9.599023437500001,4.0283203125,-58.77685546875,-3.90625,0.18310546875,0.0,0.0
10:41:54.162, -0.03828125,0.033496093750000004,8.75205078125,1.6843750000000002,-0.66513671875,9.66123046875,-0.9765625,4.08935546875,-4.150390625,0.0,0.0,0.0
10:41:54.273, 0.52158203125,0.00478515625,9.015234375,1.6939453125000001,-0.69384765625,9.622949218750001,2.8076171875,18.06640625,2.0751953125,0.0,0.0,0.0
10:41:54.385, 0.2201171875,0.11005859375,10.058398437500001,1.6700195312500001,-0.708203125,9.646875000000001,0.6103515625,21.240234375,9.70458984375,0.0,0.0,0.0
10:41:54.496, -0.88046875,-0.15791015625000002,9.94833984375,1.6700195312500001,-0.6507812500000001,9.627734375000001,-3.11279296875,20.5078125,9.82666015625,0.0,0.0,0.0
10:41:54.608, -1.30634765625,-0.21054687500000002,9.962695312500001,1.6987304687500002,-0.6747070312500001,9.651660156250001,-2.9296875,4.08935546875,2.01416015625,0.0,0.0,0.0
10:41:54.719, -1.225,-0.2201171875,9.82392578125,1.67958984375,-0.6890625,9.627734375000001,-0.1220703125,-0.48828125,-0.3662109375,0.0,0.0,0.0
10:41:54.830, -1.0862304687500002,-0.16748046875,9.780859375,1.6700195312500001,-0.66513671875,9.646875000000001,-0.54931640625,-0.18310546875,-0.3662109375,1.03759765625,0.48828125,0.0
10:41:54.941, -0.82783203125,-0.06220703125,9.68515625,1.6508789062500002,-0.6268554687500001,9.646875000000001,0.18310546875,-0.732421875,1.15966796875,2.25830078125,0.79345703125,-0.06103515625
10:41:55.053, -0.87568359375,-0.057421875000000004,9.766503906250001,1.6556640625,-0.6125,9.694726562500001,0.42724609375,-1.89208984375,1.40380859375,0.67138671875,0.0,-0.06103515625
10:41:55.164, -0.58857421875,0.00478515625,9.819140625000001,1.6700195312500001,-0.6125,9.627734375000001,-2.8076171875,-5.79833984375,1.77001953125,0.06103515625,-0.1220703125,0.0
10:41:55.275, -0.7369140625,-0.13876953125000002,9.407617187500001,1.6939453125000001,-0.6220703125,9.675585937500001,-1.89208984375,8.11767578125,2.0751953125,0.18310546875,-0.18310546875,-0.06103515625
10:41:55.386, -1.31591796875,-0.26318359375,9.675585937500001,1.6556640625,-0.6029296875000001,9.589453125,-0.67138671875,6.53076171875,-0.1220703125,0.3662109375,0.0,0.0
10:41:55.497, -1.41640625,-0.30625,9.742578125000001,1.64130859375,-0.6077148437500001,9.651660156250001,-1.77001953125,2.99072265625,-2.0751953125,0.67138671875,-0.18310546875,0.1220703125
10:41:55.609, -1.6078125,-0.30625,9.7521484375,1.6173828125,-0.56943359375,9.599023437500001,0.0,3.2958984375,-1.89208984375,0.91552734375,-0.244140625,0.18310546875
10:41:55.721, -1.6748046875000002,-0.19140625,9.68037109375,1.6269531250000002,-0.57421875,9.5703125,-0.1220703125,-2.62451171875,-1.15966796875,0.244140625,0.3662109375,0.0
10:41:55.833, -1.4690429687500002,-0.18183593750000002,9.73779296875,1.6365234375000002,-0.5598632812500001,9.699511718750001,0.06103515625,-4.45556640625,-0.06103515625,-0.48828125,1.3427734375,-0.79345703125
10:41:55.943, -1.2776367187500002,-0.27753906250000004,9.972265625,1.5791015625000002,-0.5455078125,9.670800781250001,-3.662109375,-5.9814453125,5.79833984375,-10.68115234375,1.46484375,-0.91552734375
10:41:56.054, -1.1101562500000002,-0.50244140625,9.780859375,1.8183593750000002,-0.33974609375000003,9.37890625,-2.8076171875,-12.51220703125,7.080078125,-1.5869140625,-0.06103515625,-0.48828125
10:41:56.165, -0.7225585937500001,-0.33017578125,9.5607421875,1.6125976562500002,-0.765625,9.66123046875,5.9814453125,-15.380859375,6.40869140625,-0.30517578125,-0.1220703125,-0.06103515625
10:41:56.276, -0.27753906250000004,-0.14833984375,10.369433593750001,1.5647460937500002,-0.765625,9.66123046875,-0.30517578125,-23.49853515625,3.2958984375,-0.54931640625,-0.1220703125,0.0
10:41:56.387, 0.6747070312500001,-0.48330078125000003,9.97705078125,1.5982421875000001,-0.7704101562500001,9.6181640625,-13.24462890625,-45.7763671875,-6.4697265625,-1.03759765625,-1.15966796875,0.18310546875
10:41:56.498, 1.39248046875,-0.26318359375,9.1779296875,1.68916015625,-0.7512695312500001,9.64208984375,-5.126953125,-39.794921875,-9.27734375,-0.8544921875,-0.8544921875,0.3662109375
10:41:56.611, 1.5503906250000001,-0.43544921875000003,9.024804687500001,1.67958984375,-0.8134765625000001,9.6564453125,-5.859375,-11.90185546875,-1.15966796875,0.0,-0.732421875,0.06103515625
10:41:56.723, 1.5982421875000001,-0.8421875000000001,9.59423828125,1.7130859375,-0.7991210937500001,9.651660156250001,-5.31005859375,-0.8544921875,5.4931640625,-0.1220703125,0.0,0.06103515625
10:41:56.834, 1.703515625,-0.87568359375,9.742578125000001,1.7513671875,-0.76083984375,9.61337890625,6.7138671875,-2.5634765625,-1.3427734375,-0.3662109375,0.48828125,-0.06103515625
10:41:56.945, 2.44521484375,-0.7273437500000001,9.44111328125,1.6604492187500002,-0.7943359375000001,9.64208984375,11.77978515625,-6.65283203125,-7.6904296875,-1.03759765625,0.42724609375,-0.06103515625
10:41:57.057, 2.3399414062500004,-0.19140625,9.579882812500001,1.63173828125,-0.8374023437500001,9.60859375,9.521484375,7.8125,-7.62939453125,-0.244140625,0.18310546875,0.0
10:41:57.168, 1.4786132812500001,-0.16269531250000002,9.45068359375,1.64130859375,-0.80390625,9.6181640625,1.5869140625,5.67626953125,-7.2021484375,-0.42724609375,0.30517578125,0.0
10:41:57.279, 1.2632812500000001,-0.02392578125,9.83349609375,1.6269531250000002,-0.82783203125,9.63251953125,1.8310546875,19.4091796875,-4.2724609375,-0.30517578125,0.06103515625,0.0
10:41:57.390, 1.1197265625000001,-0.0861328125,10.546484375,1.6700195312500001,-0.90439453125,9.622949218750001,2.13623046875,4.69970703125,0.0,-0.79345703125,0.1220703125,0.06103515625
10:41:57.501, 1.4929687500000002,-0.0478515625,9.359765625000001,1.64130859375,-0.8948242187500001,9.66123046875,3.23486328125,-2.01416015625,-3.72314453125,-0.54931640625,0.18310546875,0.0
10:41:57.612, 1.41162109375,0.0,9.527246093750001,1.6173828125,-0.80869140625,9.68037109375,1.0986328125,0.67138671875,-2.13623046875,-0.42724609375,0.1220703125,0.0
10:41:57.724, 1.1819335937500002,0.00478515625,9.599023437500001,1.5743164062500001,-0.8661132812500001,9.6373046875,-1.28173828125,3.0517578125,-1.5869140625,-0.30517578125,0.42724609375,0.0
10:41:57.835, 1.2919921875,0.057421875000000004,9.431542968750001,1.6221679687500001,-0.8948242187500001,9.651660156250001,0.54931640625,6.53076171875,0.79345703125,-0.30517578125,0.18310546875,0.1220703125
10:41:57.946, 0.9187500000000001,0.32060546875,10.1828125,1.6460937500000001,-0.90439453125,9.5607421875,8.11767578125,-0.91552734375,23.74267578125,0.0,0.30517578125,0.0
10:41:58.057, 1.0718750000000001,-0.052636718750000006,9.766503906250001,1.5886718750000002,-0.8517578125,9.622949218750001,1.77001953125,-12.451171875,20.20263671875,-0.18310546875,0.0,0.0
10:41:58.169, 1.25849609375,-0.17705078125,9.30712890625,1.5743164062500001,-0.88046875,9.60859375,-3.0517578125,1.52587890625,1.64794921875,0.0,0.0,0.0
10:41:58.280, 1.052734375,0.00478515625,9.723437500000001,1.6078125,-0.8852539062500001,9.646875000000001,-1.0986328125,6.7138671875,-1.28173828125,0.0,0.0,0.0
10:41:58.392, 0.74169921875,0.019140625,10.57041015625,1.63173828125,-0.8948242187500001,9.64208984375,-4.08935546875,3.2958984375,-6.2255859375,0.0,0.0,0.0
10:41:58.504, 1.1675781250000001,-0.052636718750000006,9.532031250000001,1.5982421875000001,-0.8613281250000001,9.651660156250001,-3.96728515625,-3.23486328125,1.953125,0.0,0.0,0.0
10:41:58.615, 1.0431640625,-0.16269531250000002,9.82392578125,1.6078125,-0.8852539062500001,9.6564453125,0.6103515625,1.77001953125,-0.9765625,0.0,0.0,0.0
10:41:58.727, 0.7034179687500001,-0.07177734375,9.68515625,1.64130859375,-0.899609375,9.76171875,4.5166015625,6.9580078125,-3.23486328125,0.06103515625,0.1220703125,-0.06103515625
10:41:58.837, 0.97138671875,-0.057421875000000004,9.11572265625,1.6221679687500001,-0.8326171875,9.72822265625,8.60595703125,19.53125,-2.8076171875,0.48828125,-0.244140625,-0.30517578125
10:41:58.948, 0.33974609375000003,0.47373046875,9.4650390625,1.6173828125,-0.8326171875,9.68515625,12.63427734375,30.70068359375,-2.5634765625,-0.1220703125,-0.79345703125,-0.18310546875
10:41:59.060, -1.01923828125,0.57421875,10.627832031250001,1.6460937500000001,-0.899609375,9.646875000000001,-0.48828125,14.7705078125,0.0,-0.30517578125,0.0,-0.06103515625
10:41:59.171, -0.0095703125,0.59814453125,9.37890625,1.63173828125,-0.8661132812500001,9.63251953125,-4.57763671875,-34.912109375,5.06591796875,0.3662109375,-0.1220703125,0.0
10:41:59.282, 1.20107421875,0.48330078125000003,9.646875000000001,1.6221679687500001,-0.8852539062500001,9.60859375,-3.84521484375,-28.3203125,14.46533203125,0.1220703125,-0.06103515625,0.0
10:41:59.394, 1.4451171875000002,0.1435546875,9.244921875000001,1.6748046875000002,-0.8708984375000001,9.670800781250001,0.18310546875,-2.9296875,12.8173828125,-0.18310546875,-0.54931640625,-0.1220703125
10:41:59.506, 1.95234375,-0.47851562500000006,9.30712890625,1.6460937500000001,-0.9139648437500001,9.70908203125,-0.6103515625,-6.89697265625,2.5634765625,-0.91552734375,-1.03759765625,-0.244140625
10:41:59.617, 2.6318359375,0.516796875,8.067773437500001,1.6221679687500001,-0.9570312500000001,9.70908203125,6.103515625,-3.11279296875,-10.68115234375,-0.91552734375,-0.1220703125,-0.1220703125
10:41:59.729, 1.82314453125,0.61728515625,10.5751953125,1.6508789062500002,-0.8708984375000001,9.66123046875,-2.50244140625,8.72802734375,-6.7138671875,1.3427734375,1.03759765625,0.06103515625
10:41:59.840, 2.34951171875,0.9139648437500001,7.8045898437500005,1.665234375,-0.8852539062500001,9.6373046875,-2.685546875,-36.4990234375,-2.8076171875,0.42724609375,0.8544921875,0.0
10:41:59.951, 1.6078125,0.5263671875,9.61337890625,1.59345703125,-0.9187500000000001,9.622949218750001,-5.06591796875,12.14599609375,4.0283203125,0.06103515625,0.244140625,0.1220703125
10:42:00.062, 1.36376953125,0.04306640625,9.40283203125,1.5982421875000001,-0.8661132812500001,9.6373046875,-6.2255859375,13.48876953125,5.9814453125,0.1220703125,0.18310546875,0.0
10:42:00.174, 1.4259765625,-0.24404296875,9.8478515625,1.6269531250000002,-0.8469726562500001,9.599023437500001,-3.662109375,13.12255859375,-0.06103515625,-0.18310546875,0.18310546875,0.0
10:42:00.284, 1.052734375,-0.33017578125,10.029687500000001,1.59345703125,-0.899609375,9.60859375,-0.3662109375,13.48876953125,-4.8828125,0.0,0.0,0.1220703125
10:42:00.394, 0.80869140625,0.0095703125,10.149316406250001,1.6269531250000002,-0.92353515625,9.6564453125,9.21630859375,0.54931640625,-7.4462890625,0.0,-0.1220703125,0.0
10:42:00.506, 1.091015625,0.33974609375000003,9.704296875,1.6030273437500002,-0.9283203125,9.651660156250001,3.90625,-3.41796875,-3.96728515625,0.06103515625,-0.1220703125,0.0
10:42:00.617, 1.1101562500000002,0.33974609375000003,9.85263671875,1.5982421875000001,-0.8900390625000001,9.6564453125,-0.30517578125,-16.7236328125,-0.3662109375,0.0,-0.06103515625,-0.06103515625
10:42:00.728, 1.8997070312500002,0.23925781250000003,9.287988281250001,1.6030273437500002,-0.9091796875000001,9.64208984375,-3.47900390625,-7.9345703125,2.50244140625,0.1220703125,-0.06103515625,0.0
10:42:00.840, 1.2632812500000001,0.07177734375,9.383691406250001,1.6078125,-0.9618164062500001,9.6373046875,-2.685546875,26.123046875,2.197265625,0.3662109375,0.06103515625,-0.06103515625
10:42:00.951, 0.34453125,-0.014355468750000001,10.04404296875,1.6173828125,-0.88046875,9.63251953125,-1.8310546875,10.92529296875,0.79345703125,0.30517578125,0.0,0.18310546875
10:42:01.062, 0.37802734375,0.07177734375,9.910058593750001,1.5743164062500001,-0.8469726562500001,9.603808593750001,-1.77001953125,1.46484375,2.25830078125,0.1220703125,-0.1220703125,-0.06103515625
10:42:01.172, 0.8134765625000001,-0.1244140625,9.771289062500001,1.6269531250000002,-0.9139648437500001,9.6373046875,0.3662109375,6.4697265625,4.21142578125,0.18310546875,-0.1220703125,0.0
10:42:01.283, 0.8326171875,-0.16748046875,10.125390625000001,1.6173828125,-0.85654296875,9.651660156250001,3.0517578125,-0.8544921875,2.38037109375,0.0,-0.18310546875,0.0
10:42:01.394, 0.9857421875000001,0.07177734375,9.63251953125,1.0862304687500002,-0.9283203125,8.36923828125,1.953125,-8.60595703125,-1.0986328125,1.77001953125,2.99072265625,-0.244140625
10:42:01.504, 1.07666015625,0.2009765625,9.895703125,1.4833984375,-0.9474609375,9.82392578125,2.8076171875,-5.18798828125,0.8544921875,0.1220703125,1.5869140625,0.244140625
10:42:01.616, 0.9139648437500001,0.03828125,9.484179687500001,1.58388671875,-0.87568359375,9.5224609375,-9.70458984375,0.67138671875,1.03759765625,-0.244140625,0.06103515625,-0.18310546875
10:42:01.727, 0.9666015625000001,-0.19619140625,9.90048828125,1.53603515625,-0.87568359375,9.311914062500001,-6.2255859375,-5.859375,2.9296875,0.1220703125,0.244140625,0.0
10:42:01.838, 1.1915039062500001,-0.27275390625,9.5416015625,1.5982421875000001,-0.8948242187500001,9.694726562500001,3.7841796875,-2.25830078125,2.01416015625,-0.1220703125,0.0,-0.06103515625
10:42:01.950, 1.4068359375000001,-0.24404296875,9.503320312500001,1.5982421875000001,-0.9187500000000001,9.627734375000001,-0.91552734375,-1.15966796875,1.46484375,0.30517578125,0.0,0.06103515625
10:42:02.061, 1.2393554687500001,-0.24404296875,9.388476562500001,1.6078125,-0.8374023437500001,9.63251953125,-1.89208984375,4.69970703125,3.23486328125,0.18310546875,0.0,0.0
10:42:02.172, 0.92353515625,0.06699218750000001,10.0392578125,1.58388671875,-0.8948242187500001,9.6181640625,-0.06103515625,0.18310546875,9.033203125,0.0,-0.1220703125,0.0
10:42:02.283, 1.1340820312500002,-0.13876953125000002,9.54638671875,1.5982421875000001,-0.92353515625,9.651660156250001,7.4462890625,4.82177734375,7.8125,0.0,-0.06103515625,0.06103515625
10:42:02.395, 1.1005859375,0.0,9.407617187500001,1.58388671875,-0.899609375,9.63251953125,-5.18798828125,7.2021484375,4.39453125,0.06103515625,-0.1220703125,-0.06103515625
10:42:02.507, 0.7943359375000001,-0.172265625,10.40771484375,1.6125976562500002,-0.8948242187500001,9.68037109375,5.43212890625,0.48828125,10.55908203125,0.06103515625,-0.06103515625,0.0
10:42:02.617, 0.63642578125,0.06699218750000001,9.27841796875,1.5886718750000002,-0.8900390625000001,9.6181640625,0.9765625,4.69970703125,19.34814453125,0.06103515625,-0.06103515625,0.1220703125
10:42:02.728, 0.32539062500000004,-0.11962890625000001,9.56552734375,1.5791015625000002,-0.8948242187500001,9.627734375000001,6.04248046875,16.4794921875,31.494140625,0.0,0.0,-0.1220703125
10:42:02.840, 0.11484375000000001,-0.09091796875000001,10.01533203125,1.59345703125,-0.8708984375000001,9.6373046875,4.150390625,7.99560546875,29.9072265625,0.0,0.0,0.0
10:42:02.951, 0.06699218750000001,-0.18662109375000002,9.8478515625,1.5791015625000002,-0.9139648437500001,9.627734375000001,2.01416015625,3.35693359375,24.169921875,0.0,0.0,0.0
10:42:03.063, -0.014355468750000001,-0.24404296875,9.646875000000001,1.58388671875,-0.899609375,9.58466796875,1.953125,4.33349609375,9.765625,0.0,0.0,0.0
10:42:03.175, -0.0861328125,-0.019140625,9.8478515625,1.5886718750000002,-0.9139648437500001,9.627734375000001,0.91552734375,2.74658203125,-2.9296875,0.0,0.0,0.0
10:42:03.286, -0.09091796875000001,0.0,9.72822265625,1.5982421875000001,-0.88046875,9.622949218750001,0.06103515625,-0.54931640625,-0.54931640625,0.0,0.0,0.0
10:42:03.396, -0.028710937500000002,0.09091796875000001,9.78564453125,1.5886718750000002,-0.90439453125,9.627734375000001,4.21142578125,-0.244140625,-2.38037109375,0.0,0.0,0.0
10:42:03.507, 0.1435546875,-0.057421875000000004,9.622949218750001,1.5982421875000001,-0.899609375,9.63251953125,1.77001953125,0.1220703125,-0.244140625,0.0,0.0,0.0
10:42:03.619, 0.0765625,-0.16269531250000002,9.957910156250001,1.5886718750000002,-0.899609375,9.603808593750001,-8.85009765625,-4.82177734375,5.615234375,0.0,0.0,0.0
10:42:03.730, -0.052636718750000006,-0.07177734375,9.58466796875,1.58388671875,-0.9139648437500001,9.6181640625,9.94873046875,8.9111328125,-4.39453125,0.0,0.0,0.0
10:42:03.841, -0.18662109375000002,0.16269531250000002,10.16845703125,1.6269531250000002,-0.85654296875,9.64208984375,-3.90625,2.5634765625,-10.19287109375,0.0,0.0,0.0
10:42:03.952, -0.440234375,-0.00478515625,9.412402343750001,1.6125976562500002,-0.90439453125,9.68515625,4.57763671875,-1.220703125,-18.4326171875,0.0,0.0,0.0
10:42:04.063, -0.32539062500000004,0.30625,10.316796875000001,1.6078125,-0.9187500000000001,9.60859375,4.33349609375,-20.8740234375,-37.841796875,0.0,0.0,0.0
10:42:04.174, 0.22968750000000002,0.09091796875000001,9.10615234375,1.5982421875000001,-0.85654296875,9.56552734375,-6.4697265625,-15.0146484375,-34.11865234375,0.0,0.0,0.0
10:42:04.285, 0.8948242187500001,0.08134765625000001,9.503320312500001,1.6078125,-0.8948242187500001,9.6181640625,-6.53076171875,7.32421875,-17.02880859375,0.0,0.06103515625,0.0
10:42:04.396, 0.8469726562500001,0.27753906250000004,9.479394531250001,1.59345703125,-0.9187500000000001,9.6181640625,4.2724609375,-18.798828125,-2.0751953125,0.1220703125,-0.30517578125,-0.1220703125
10:42:04.509, 1.20107421875,0.057421875000000004,8.747265625,1.6173828125,-0.8374023437500001,9.6564453125,-5.31005859375,-34.423828125,0.732421875,0.244140625,0.3662109375,0.0
10:42:04.620, 1.49775390625,-0.19140625,9.962695312500001,1.6078125,-0.87568359375,9.742578125000001,-3.96728515625,-10.68115234375,1.28173828125,0.0,-0.48828125,0.0
10:42:04.730, 1.79921875,-0.19140625,9.25927734375,1.56953125,-0.976171875,9.6564453125,0.91552734375,-12.6953125,-5.859375,-0.1220703125,0.0,0.0
10:42:04.843, 1.8375000000000001,-0.00478515625,10.45078125,1.6269531250000002,-0.9378906250000001,9.670800781250001,-4.8828125,-12.39013671875,-8.6669921875,0.0,0.0,0.0
10:42:04.954, 2.2490234375,0.04306640625,8.641992187500001,1.5886718750000002,-0.9139648437500001,9.6181640625,-5.37109375,-33.26416015625,-10.1318359375,0.0,0.1220703125,0.0
10:42:05.065, 2.1198242187500003,-0.18183593750000002,9.68994140625,1.5551757812500002,-0.9618164062500001,9.5607421875,1.40380859375,16.4794921875,3.90625,-0.06103515625,0.06103515625,0.0
10:42:05.178, 1.7944335937500002,0.095703125,10.1349609375,1.6987304687500002,-0.90439453125,9.699511718750001,2.99072265625,11.1083984375,5.859375,0.06103515625,0.18310546875,-0.06103515625
10:42:05.290, 1.30634765625,-0.16269531250000002,9.838281250000001,1.5647460937500002,-0.85654296875,9.58466796875,-5.18798828125,8.97216796875,5.4931640625,0.0,0.0,-0.06103515625
10:42:05.400, 2.3638671875000004,-0.42109375000000004,9.3310546875,1.6078125,-0.9474609375,9.670800781250001,1.89208984375,3.662109375,-3.11279296875,0.0,0.30517578125,0.06103515625
10:42:05.511, 1.6748046875000002,-0.019140625,9.32626953125,1.6078125,-0.9666015625000001,9.59423828125,0.06103515625,-6.2255859375,-6.103515625,-0.06103515625,0.1220703125,0.06103515625
10:42:05.622, 1.8279296875000002,0.06220703125,9.622949218750001,1.5982421875000001,-0.8469726562500001,9.579882812500001,2.3193359375,1.3427734375,-0.54931640625,0.1220703125,0.30517578125,0.0
10:42:05.732, 1.8997070312500002,-0.0478515625,9.75693359375,1.5886718750000002,-0.90439453125,9.60859375,0.6103515625,1.0986328125,-0.79345703125,0.0,0.1220703125,0.06103515625
10:42:05.843, 1.665234375,-0.11484375000000001,9.77607421875,1.5982421875000001,-0.95224609375,9.6181640625,2.13623046875,0.0,-4.21142578125,-0.06103515625,0.0,0.0
10:42:05.955, 1.73701171875,0.033496093750000004,9.886132812500001,1.5743164062500001,-0.9378906250000001,9.59423828125,1.220703125,-4.150390625,-2.13623046875,0.18310546875,0.1220703125,0.06103515625
10:42:06.066, 1.58388671875,-0.19619140625,9.6564453125,1.6269531250000002,-0.9187500000000001,9.6564453125,-0.9765625,-2.86865234375,-1.89208984375,0.06103515625,0.06103515625,0.0
10:42:06.177, 1.7944335937500002,-0.019140625,9.49375,1.5551757812500002,-0.9187500000000001,9.579882812500001,4.638671875,0.6103515625,-0.54931640625,-0.1220703125,0.0,0.0
10:42:06.286, 1.8279296875000002,0.11005859375,9.7521484375,1.6030273437500002,-0.9139648437500001,9.61337890625,2.9296875,6.04248046875,1.0986328125,0.0,-0.06103515625,-0.06103515625
10:42:06.397, 1.8087890625,0.0861328125,9.5416015625,1.63173828125,-0.9091796875000001,9.72822265625,0.0,-0.3662109375,-2.86865234375,0.0,0.0,0.0
10:42:06.509, 1.79921875,0.248828125,9.589453125,1.5886718750000002,-0.92353515625,9.599023437500001,-0.732421875,0.18310546875,0.0,0.0,0.0,0.0
10:42:06.619, 1.68916015625,0.095703125,9.670800781250001,1.6125976562500002,-0.95224609375,9.651660156250001,-3.173828125,0.48828125,3.90625,0.0,0.0,0.0
10:42:06.730, 1.7944335937500002,-0.12919921875,9.5607421875,1.6221679687500001,-0.899609375,9.622949218750001,-4.39453125,0.1220703125,3.5400390625,0.0,0.0,0.0
10:42:06.841, 1.6269531250000002,0.00478515625,9.70908203125,1.59345703125,-0.92353515625,9.651660156250001,-1.3427734375,1.40380859375,2.44140625,0.0,0.0,0.0
10:42:06.952, 1.67958984375,-0.15791015625000002,9.68037109375,1.59345703125,-0.9187500000000001,9.61337890625,-2.38037109375,0.3662109375,3.0517578125,0.0,0.0,0.0
10:42:07.064, 1.6365234375000002,-0.2583984375,9.58466796875,1.5743164062500001,-0.9474609375,9.622949218750001,-0.9765625,1.52587890625,2.38037109375,0.0,0.0,0.0
10:42:07.175, 1.6604492187500002,-0.172265625,9.70908203125,1.6078125,-0.97138671875,9.622949218750001,0.30517578125,0.06103515625,-0.06103515625,0.0,0.0,0.0
10:42:07.287, 1.703515625,-0.11962890625000001,9.66123046875,1.5743164062500001,-0.9283203125,9.64208984375,0.244140625,-0.30517578125,2.01416015625,0.0,0.0,0.0
10:42:07.396, 1.6365234375000002,-0.22968750000000002,9.60859375,1.5791015625000002,-0.9378906250000001,9.579882812500001,-0.48828125,1.77001953125,2.685546875,0.0,0.0,0.0
10:42:07.508, 1.6365234375000002,-0.2966796875,9.627734375000001,1.5791015625000002,-0.9474609375,9.589453125,-0.42724609375,0.79345703125,-0.79345703125,0.0,0.0,0.0
10:42:07.620, 1.6221679687500001,-0.27753906250000004,9.670800781250001,1.5791015625000002,-0.9139648437500001,9.5416015625,0.0,1.8310546875,-4.69970703125,0.0,0.1220703125,-0.1220703125
10:42:07.731, 1.5982421875000001,-0.06220703125,9.718652343750001,1.6365234375000002,-0.9666015625000001,9.551171875000001,0.9765625,0.3662109375,-3.662109375,0.0,0.06103515625,0.0
10:42:07.842, 1.5647460937500002,-0.18183593750000002,9.532031250000001,1.6221679687500001,-0.8948242187500001,9.675585937500001,2.3193359375,0.9765625,-0.42724609375,-0.30517578125,0.3662109375,0.06103515625
10:42:07.954, 1.6173828125,-0.033496093750000004,9.843066406250001,1.6700195312500001,-0.9857421875000001,9.6373046875,1.64794921875,-0.91552734375,-4.57763671875,-0.3662109375,0.18310546875,-0.1220703125
10:42:08.065, 1.68916015625,0.16748046875,9.383691406250001,1.5408203125000002,-1.00966796875,9.579882812500001,2.3193359375,-1.52587890625,0.0,-0.244140625,-0.1220703125,0.06103515625
10:42:08.176, 1.6125976562500002,-0.033496093750000004,9.766503906250001,1.6604492187500002,-0.976171875,9.8287109375,-2.44140625,3.173828125,2.685546875,0.244140625,-0.06103515625,-0.1220703125
10:42:08.287, 1.5216796875,-0.1244140625,9.8287109375,1.4642578125,-0.9666015625000001,9.646875000000001,-3.173828125,2.3193359375,2.0751953125,0.1220703125,0.0,-0.06103515625
10:42:08.398, 1.378125,-0.23447265625000002,9.58466796875,1.63173828125,-0.9618164062500001,9.503320312500001,-0.8544921875,2.0751953125,1.3427734375,0.06103515625,-0.1220703125,0.0
10:42:08.509, 1.4929687500000002,-0.17705078125,9.838281250000001,1.6939453125000001,-0.9426757812500001,9.666015625,-0.54931640625,-0.91552734375,-0.42724609375,-0.06103515625,-0.06103515625,-0.06103515625
10:42:08.621, 1.54560546875,-0.2201171875,9.579882812500001,1.5503906250000001,-0.9618164062500001,9.646875000000001,1.3427734375,-3.173828125,0.0,0.0,0.06103515625,0.06103515625
10:42:08.732, 1.4786132812500001,-0.052636718750000006,9.910058593750001,1.6030273437500002,-0.9857421875000001,9.704296875,0.0,3.41796875,-0.244140625,0.54931640625,0.0,-0.06103515625
10:42:08.843, 1.4259765625,-0.02392578125,9.68515625,1.6221679687500001,-0.899609375,9.512890625,-1.52587890625,0.48828125,0.9765625,0.0,0.0,0.0
10:42:08.955, 1.59345703125,-0.30146484375000004,9.862207031250001,1.6030273437500002,-0.9857421875000001,9.72822265625,0.48828125,-0.42724609375,0.1220703125,0.18310546875,0.0,0.06103515625
10:42:09.067, 1.50732421875,-0.09091796875000001,9.60859375,1.5551757812500002,-1.0000976562500001,9.53681640625,1.77001953125,0.79345703125,-0.3662109375,0.1220703125,-0.06103515625,-0.1220703125
10:42:09.178, 1.4259765625,-0.153125,9.61337890625,1.6843750000000002,-0.90439453125,9.6564453125,-1.28173828125,1.77001953125,0.48828125,0.30517578125,0.06103515625,0.0
10:42:09.289, 1.5791015625000002,-0.23447265625000002,9.8095703125,1.6173828125,-0.97138671875,9.6181640625,-1.46484375,-0.8544921875,2.13623046875,-0.06103515625,0.0,0.0
10:42:09.400, 1.4307617187500001,-0.27753906250000004,9.68515625,1.63173828125,-1.0000976562500001,9.742578125000001,1.64794921875,2.197265625,-1.0986328125,0.30517578125,-0.18310546875,-0.18310546875
10:42:09.510, 1.4211914062500002,-0.0478515625,9.780859375,1.6460937500000001,-0.9378906250000001,9.670800781250001,0.3662109375,0.30517578125,-1.89208984375,0.244140625,0.06103515625,-0.06103515625
10:42:09.621, 1.4546875000000001,-0.21054687500000002,9.60859375,1.5791015625000002,-0.9570312500000001,9.579882812500001,-1.8310546875,0.0,2.62451171875,0.0,-0.18310546875,0.06103515625
10:42:09.734, 1.4307617187500001,-0.33974609375000003,9.589453125,1.6173828125,-1.01923828125,9.64208984375,1.52587890625,1.28173828125,-1.64794921875,0.1220703125,0.0,-0.244140625
10:42:09.844, 1.4259765625,-0.019140625,9.747363281250001,1.7800781250000002,-0.80869140625,9.5224609375,-2.13623046875,0.6103515625,1.8310546875,0.30517578125,-0.42724609375,0.0
10:42:09.955, 1.41162109375,-0.5550781250000001,9.53681640625,1.2345703125,-0.85654296875,8.60849609375,-3.84521484375,1.40380859375,3.41796875,-0.48828125,1.03759765625,0.0
10:42:10.067, 1.31591796875,-0.36367187500000003,9.771289062500001,1.3302734375,-0.899609375,9.03916015625,4.7607421875,1.40380859375,-3.11279296875,0.30517578125,0.30517578125,0.0
10:42:10.178, 1.3494140625000002,0.13398437500000002,9.61337890625,1.58388671875,-1.02880859375,9.51767578125,0.3662109375,0.9765625,-3.35693359375,0.0,-0.54931640625,-0.06103515625
10:42:10.289, 1.3876953125,-0.0095703125,9.704296875,1.6221679687500001,-0.9187500000000001,9.63251953125,-6.28662109375,1.15966796875,4.2724609375,0.42724609375,-0.18310546875,0.0
10:42:10.401, 1.2919921875,-0.46894531250000004,9.66123046875,1.6269531250000002,-0.87568359375,9.6564453125,-1.15966796875,2.74658203125,6.28662109375,0.1220703125,0.06103515625,0.1220703125
10:42:10.512, 1.2632812500000001,-0.24404296875,9.8095703125,1.59345703125,-1.00966796875,9.63251953125,5.37109375,1.220703125,-3.41796875,0.06103515625,0.0,0.0
10:42:10.622, 1.282421875,0.04306640625,9.723437500000001,1.64130859375,-0.95224609375,9.6373046875,-1.03759765625,0.67138671875,-3.84521484375,0.244140625,0.06103515625,0.0
10:42:10.733, 1.24892578125,-0.21533203125000003,9.651660156250001,1.5551757812500002,-0.90439453125,9.599023437500001,-4.39453125,1.46484375,4.82177734375,0.1220703125,0.06103515625,-0.06103515625
10:42:10.845, 1.1580078125000002,-0.32060546875,9.747363281250001,1.6173828125,-0.92353515625,9.6564453125,3.60107421875,0.79345703125,-1.46484375,0.06103515625,0.0,0.0
10:42:10.955, 1.1819335937500002,-0.028710937500000002,9.747363281250001,1.59345703125,-0.9857421875000001,9.622949218750001,0.67138671875,0.06103515625,-3.41796875,0.06103515625,-0.06103515625,-0.06103515625
10:42:11.067, 1.29677734375,-0.06220703125,9.68994140625,1.6173828125,-0.9474609375,9.651660156250001,-1.953125,-0.732421875,2.197265625,0.18310546875,0.06103515625,0.0
10:42:11.177, 1.25849609375,-0.37324218750000004,9.723437500000001,1.5982421875000001,-0.9283203125,9.6181640625,-1.3427734375,0.48828125,2.25830078125,0.1220703125,0.0,0.0
10:42:11.288, 1.2058593750000002,-0.2009765625,9.7138671875,1.5886718750000002,-0.9426757812500001,9.60859375,1.8310546875,0.8544921875,-2.685546875,0.0,0.0,0.0
10:42:11.398, 1.1675781250000001,-0.0765625,9.75693359375,1.5982421875000001,-0.9666015625000001,9.60859375,1.40380859375,0.30517578125,-0.67138671875,0.0,0.0,0.0
10:42:11.510, 1.225,-0.0861328125,9.675585937500001,1.56953125,-0.9426757812500001,9.651660156250001,-0.67138671875,-0.18310546875,0.8544921875,0.0,0.0,0.0
10:42:11.621, 1.21064453125,-0.2201171875,9.73779296875,1.6221679687500001,-0.97138671875,9.60859375,-0.244140625,0.42724609375,0.6103515625,0.0,0.0,0.0
10:42:11.733, 1.1819335937500002,-0.13876953125000002,9.7330078125,1.6030273437500002,-0.9331054687500001,9.61337890625,0.3662109375,0.18310546875,-0.42724609375,0.0,0.0,0.0
10:42:11.844, 1.22021484375,-0.16748046875,9.742578125000001,1.6125976562500002,-0.97138671875,9.627734375000001,-1.64794921875,0.79345703125,0.8544921875,0.0,0.0,0.0
10:42:11.954, 1.2728515625,-0.19619140625,9.68037109375,1.5743164062500001,-0.9426757812500001,9.63251953125,-0.54931640625,-0.18310546875,0.48828125,0.0,0.0,0.0
10:42:12.066, 1.2345703125,-0.15791015625000002,9.70908203125,1.6125976562500002,-0.9426757812500001,9.64208984375,2.44140625,-0.6103515625,4.2724609375,0.0,0.0,0.0
10:42:12.176, 1.1580078125000002,-0.22968750000000002,9.8478515625,1.6030273437500002,-0.9666015625000001,9.6564453125,-4.82177734375,2.685546875,-3.60107421875,0.0,0.0,0.0
10:42:12.286, 1.1005859375,-0.30625,9.670800781250001,1.6221679687500001,-0.9474609375,9.64208984375,-5.43212890625,2.9296875,-2.01416015625,0.0,0.0,0.0
10:42:12.397, 1.17236328125,-0.39716796875000004,9.723437500000001,1.6125976562500002,-0.9666015625000001,9.646875000000001,1.3427734375,0.18310546875,4.82177734375,0.0,0.0,0.0
10:42:12.508, 1.0623046875000002,-0.36367187500000003,9.790429687500001,1.6030273437500002,-0.95224609375,9.651660156250001,3.96728515625,1.708984375,0.1220703125,0.0,0.0,0.0
10:42:12.619, 1.02880859375,-0.21533203125000003,9.58466796875,1.5982421875000001,-0.9474609375,9.6181640625,-2.38037109375,2.0751953125,-4.21142578125,0.0,0.0,0.0
10:42:12.730, 1.05751953125,-0.2583984375,9.866992187500001,1.63173828125,-0.9283203125,9.646875000000001,2.50244140625,-0.91552734375,0.67138671875,0.0,0.0,0.0
10:42:12.842, 1.0814453125,-0.36845703125,9.532031250000001,1.58388671875,-0.9474609375,9.64208984375,3.90625,0.0,0.06103515625,0.0,0.0,0.0
10:42:12.953, 1.0431640625,-0.10527343750000001,9.718652343750001,1.63173828125,-0.9953125,9.64208984375,1.77001953125,-0.1220703125,-4.39453125,0.0,0.0,0.0
10:42:13.064, 1.16279296875,-0.033496093750000004,9.72822265625,1.5791015625000002,-0.9426757812500001,9.61337890625,-1.0986328125,-2.74658203125,1.5869140625,0.0,0.0,0.0
10:42:13.176, 1.1484375,-0.2583984375,9.51767578125,1.6078125,-0.9283203125,9.627734375000001,-4.2724609375,0.67138671875,-0.48828125,0.0,0.0,0.0
10:42:13.287, 0.95224609375,-0.24404296875,10.082324218750001,1.5982421875000001,-0.9857421875000001,9.6373046875,-1.89208984375,3.41796875,-3.23486328125,0.0,0.0,0.0
10:42:13.398, 0.9809570312500001,-0.26318359375,10.034472656250001,1.64130859375,-0.9857421875000001,9.646875000000001,2.50244140625,-8.23974609375,-1.52587890625,0.0,0.0,0.0
10:42:13.509, 1.16279296875,-0.15791015625000002,10.4794921875,1.5743164062500001,-0.9426757812500001,9.575097656250001,4.45556640625,-26.85546875,-2.74658203125,0.0,0.0,0.0
10:42:13.620, 2.4117187500000004,-0.10048828125,8.14912109375,1.64130859375,-0.976171875,9.666015625,1.77001953125,-28.1982421875,-0.1220703125,0.0,0.0,0.0
10:42:13.731, 2.48828125,-0.18183593750000002,9.10615234375,1.6125976562500002,-0.9570312500000001,9.622949218750001,-0.732421875,3.662109375,-3.60107421875,0.0,0.0,0.0
10:42:13.841, 2.2155273437500003,0.10048828125,9.398046875,1.6030273437500002,-0.9474609375,9.622949218750001,2.3193359375,-3.2958984375,-4.45556640625,0.0,0.0,0.0
10:42:13.952, 2.3255859375,0.2201171875,9.455468750000001,1.6365234375000002,-0.9474609375,9.68037109375,1.5869140625,4.82177734375,-0.8544921875,0.0,0.0,0.0
10:42:14.065, 2.1533203125,0.15791015625000002,9.646875000000001,1.6221679687500001,-0.9570312500000001,9.61337890625,3.11279296875,0.18310546875,0.91552734375,0.0,0.0,0.0
10:42:14.176, 2.42607421875,0.1435546875,9.508105468750001,1.6078125,-0.9378906250000001,9.6564453125,-0.6103515625,1.0986328125,1.953125,0.0,0.0,0.0
10:42:14.288, 2.277734375,0.0765625,9.40283203125,1.59345703125,-0.95224609375,9.599023437500001,-3.173828125,1.03759765625,1.8310546875,0.0,0.0,0.0
10:42:14.399, 2.2633789062500003,0.02392578125,9.5416015625,1.6269531250000002,-0.9857421875000001,9.666015625,-0.42724609375,0.1220703125,1.46484375,0.0,0.0,0.0
10:42:14.510, 2.2442382812500004,-0.11005859375,9.48896484375,1.5982421875000001,-0.9378906250000001,9.589453125,-3.173828125,0.79345703125,2.25830078125,0.0,0.0,0.0
10:42:14.620, 2.1963867187500004,-0.13876953125000002,9.49375,1.56953125,-0.95224609375,9.6564453125,-0.67138671875,1.5869140625,-0.8544921875,0.0,0.0,0.0
10:42:14.731, 2.296875,-0.03828125,9.723437500000001,1.6604492187500002,-0.9426757812500001,9.68037109375,0.42724609375,0.67138671875,-0.244140625,0.0,0.0,0.0
10:42:14.841, 2.201171875,-0.0765625,9.268847656250001,1.5168945312500002,-0.9953125,9.5607421875,-0.54931640625,-0.42724609375,0.3662109375,0.0,0.0,0.0
10:42:14.952, 2.2394531250000003,-0.11962890625000001,9.77607421875,1.63173828125,-0.9474609375,9.670800781250001,-0.244140625,1.77001953125,0.1220703125,0.0,0.0,0.0
10:42:15.064, 2.18681640625,-0.019140625,9.455468750000001,1.5503906250000001,-0.899609375,9.58466796875,0.79345703125,0.9765625,-0.9765625,0.0,0.0,0.0
10:42:15.176, 2.2155273437500003,-0.019140625,9.589453125,1.6221679687500001,-0.9666015625000001,9.63251953125,0.42724609375,2.44140625,-0.9765625,0.0,0.0,0.0
10:42:15.287, 2.1676757812500003,0.0,9.603808593750001,1.5743164062500001,-0.97138671875,9.589453125,-0.18310546875,0.54931640625,0.42724609375,0.0,0.0,0.0
10:42:15.398, 2.2203125000000004,-0.04306640625,9.508105468750001,1.5599609375,-1.18671875,9.60859375,-0.67138671875,0.9765625,0.18310546875,-0.1220703125,0.79345703125,-0.18310546875
10:42:15.510, 2.08154296875,-0.0861328125,9.479394531250001,1.5551757812500002,-0.9426757812500001,9.603808593750001,-0.54931640625,3.0517578125,-0.18310546875,0.06103515625,0.0,0.0
10:42:15.621, 1.95234375,-0.095703125,9.555957031250001,1.5503906250000001,-0.9426757812500001,9.599023437500001,-0.8544921875,4.21142578125,0.8544921875,0.06103515625,0.0,-0.06103515625
10:42:15.731, 2.04326171875,-0.16748046875,9.819140625000001,1.64130859375,-0.8948242187500001,9.675585937500001,0.0,-0.8544921875,-1.0986328125,-0.06103515625,0.0,0.06103515625
10:42:15.843, 2.0241210937500003,0.02392578125,9.4171875,1.5886718750000002,-1.0144531250000002,9.5703125,0.9765625,0.1220703125,-3.11279296875,-0.06103515625,-0.06103515625,0.0
10:42:15.953, 2.0289062500000004,-0.00478515625,9.5703125,1.6221679687500001,-0.95224609375,9.66123046875,-1.46484375,2.01416015625,1.3427734375,0.0,-0.244140625,0.0
10:42:16.063, 1.92841796875,-0.052636718750000006,9.49853515625,1.58388671875,-0.9570312500000001,9.675585937500001,-1.77001953125,5.7373046875,2.74658203125,-0.06103515625,0.18310546875,0.0
10:42:16.174, 1.82314453125,-0.07177734375,9.646875000000001,1.59345703125,-0.9666015625000001,9.589453125,1.3427734375,1.46484375,2.25830078125,-0.06103515625,0.1220703125,0.1220703125
10:42:16.286, 1.8470703125,-0.033496093750000004,9.699511718750001,1.6125976562500002,-0.97138671875,9.651660156250001,-1.89208984375,0.1220703125,2.685546875,0.18310546875,0.0,0.0
10:42:16.396, 1.82314453125,-0.28232421875,9.48896484375,1.6173828125,-0.9618164062500001,9.651660156250001,-3.11279296875,0.6103515625,1.52587890625,0.0,0.18310546875,0.0
10:42:16.507, 1.78486328125,-0.19140625,9.72822265625,1.5982421875000001,-0.97138671875,9.599023437500001,1.77001953125,3.2958984375,3.90625,-0.06103515625,0.18310546875,0.0
10:42:16.618, 1.8087890625,-0.26796875000000003,9.42197265625,1.56953125,-0.8900390625000001,9.670800781250001,-0.06103515625,-0.9765625,0.244140625,0.244140625,0.18310546875,-0.06103515625
10:42:16.730, 1.78486328125,-0.19619140625,9.651660156250001,1.59345703125,-0.9474609375,9.670800781250001,0.1220703125,4.150390625,-0.79345703125,-0.06103515625,-0.30517578125,0.0
10:42:16.841, 1.7130859375,-0.11962890625000001,9.7521484375,1.97626953125,-0.899609375,9.51767578125,0.42724609375,-0.06103515625,0.42724609375,-0.30517578125,-0.1220703125,0.244140625
10:42:16.952, 1.6843750000000002,-0.23925781250000003,9.460253906250001,1.6269531250000002,-0.9091796875000001,9.6564453125,-0.91552734375,3.84521484375,0.54931640625,-0.1220703125,0.06103515625,-0.06103515625
10:42:17.062, 1.6700195312500001,-0.31103515625,9.6373046875,1.473828125,-1.0240234375000001,9.953125,1.0986328125,2.5634765625,-0.91552734375,-1.953125,1.220703125,0.6103515625
10:42:17.173, 1.4929687500000002,-0.18183593750000002,9.771289062500001,1.59345703125,-0.9331054687500001,9.575097656250001,4.150390625,-1.28173828125,-5.126953125,0.0,-0.1220703125,0.0
10:42:17.284, 1.5503906250000001,0.095703125,9.4458984375,1.6604492187500002,-1.0048828125,9.599023437500001,3.0517578125,0.06103515625,-3.2958984375,-0.06103515625,-0.42724609375,-0.06103515625
10:42:17.394, 1.5503906250000001,0.03828125,10.0201171875,1.56953125,-0.976171875,9.59423828125,0.732421875,-6.65283203125,0.48828125,0.06103515625,0.244140625,0.06103515625
10:42:17.507, 1.87099609375,0.0861328125,9.29755859375,1.6508789062500002,-0.9618164062500001,9.599023437500001,0.0,0.18310546875,-2.0751953125,-0.06103515625,0.0,0.06103515625
10:42:17.617, 1.8470703125,-0.0861328125,9.866992187500001,1.64130859375,-0.9378906250000001,9.68994140625,0.42724609375,0.3662109375,-0.732421875,0.0,0.1220703125,-0.18310546875
10:42:17.729, 1.7465820312500002,0.052636718750000006,9.460253906250001,1.64130859375,-0.9953125,9.64208984375,1.0986328125,1.0986328125,-1.3427734375,-0.1220703125,-0.06103515625,0.06103515625
10:42:17.839, 1.7226562500000002,0.18662109375000002,9.723437500000001,1.6221679687500001,-0.9666015625000001,9.6564453125,0.06103515625,0.3662109375,-0.48828125,0.30517578125,-0.3662109375,-0.1220703125
10:42:17.951, 1.6843750000000002,0.014355468750000001,9.61337890625,1.5886718750000002,-0.9283203125,9.555957031250001,-1.40380859375,1.52587890625,1.46484375,0.42724609375,0.06103515625,0.0
10:42:18.062, 1.6556640625,0.028710937500000002,9.56552734375,2.0193359375,-1.03359375,10.1158203125,-0.42724609375,1.220703125,1.77001953125,-2.9296875,-1.77001953125,0.6103515625
10:42:18.173, 1.5982421875000001,0.095703125,9.76171875,1.8518554687500002,-1.1484375,9.292773437500001,1.15966796875,3.84521484375,-0.18310546875,-0.30517578125,2.01416015625,-0.18310546875
10:42:18.285, 1.58388671875,0.033496093750000004,9.85263671875,1.68916015625,-1.1819335937500002,10.077539062500001,-2.197265625,0.1220703125,-1.8310546875,0.1220703125,-0.48828125,0.06103515625
10:42:18.395, 1.64130859375,0.014355468750000001,9.670800781250001,1.53603515625,-0.9905273437500001,9.63251953125,-0.54931640625,-1.5869140625,1.28173828125,0.30517578125,0.30517578125,-0.1220703125
10:42:18.507, 1.5216796875,0.04306640625,9.890917968750001,1.3589843750000001,-1.3685546875,13.278808593750002,1.5869140625,2.50244140625,-0.6103515625,4.08935546875,-18.61572265625,-0.732421875
10:42:18.618, 1.5551757812500002,0.153125,9.63251953125,1.856640625,-0.80390625,9.61337890625,-0.1220703125,-1.03759765625,-1.52587890625,-1.77001953125,3.11279296875,0.0
10:42:18.728, 1.64130859375,0.13398437500000002,9.7330078125,1.6125976562500002,-0.9331054687500001,9.646875000000001,-0.42724609375,0.18310546875,1.708984375,0.0,0.244140625,-0.06103515625
10:42:18.840, 1.5886718750000002,-0.0095703125,9.670800781250001,1.59345703125,-0.9378906250000001,9.599023437500001,-1.89208984375,-0.6103515625,1.8310546875,0.06103515625,-0.18310546875,-0.06103515625
10:42:18.952, 1.6078125,-0.00478515625,9.59423828125,1.6556640625,-0.899609375,9.66123046875,-0.1220703125,-0.3662109375,0.244140625,0.0,0.0,0.06103515625
10:42:19.062, 1.6508789062500002,-0.00478515625,9.622949218750001,1.6125976562500002,-0.9857421875000001,9.675585937500001,-0.91552734375,0.54931640625,1.15966796875,-0.1220703125,0.0,0.0
10:42:19.174, 1.6125976562500002,0.0,9.58466796875,1.6173828125,-0.9474609375,9.6181640625,-1.0986328125,0.8544921875,1.52587890625,0.18310546875,0.06103515625,0.0
10:42:19.285, 1.56953125,-0.11484375000000001,9.7138671875,1.6460937500000001,-0.9187500000000001,9.646875000000001,-1.03759765625,0.3662109375,1.77001953125,-0.06103515625,0.1220703125,-0.1220703125
10:42:19.411, 1.59345703125,0.00478515625,9.675585937500001,1.5743164062500001,-0.9474609375,9.59423828125,1.28173828125,0.0,-0.18310546875,-0.06103515625,0.06103515625,0.0
10:42:19.523, 1.56953125,-0.014355468750000001,9.68037109375,1.63173828125,-0.97138671875,9.599023437500001,-0.732421875,1.28173828125,-0.1220703125,0.0,0.06103515625,0.0
10:42:19.634, 1.56953125,-0.0478515625,9.66123046875,1.5982421875000001,-0.92353515625,9.6564453125,0.3662109375,-0.42724609375,0.3662109375,0.1220703125,0.0,0.0
10:42:19.745, 1.5551757812500002,-0.08134765625000001,9.589453125,1.63173828125,-0.9378906250000001,9.589453125,0.244140625,0.67138671875,-0.42724609375,0.0,0.0,0.0
10:42:19.856, 1.58388671875,0.07177734375,9.771289062500001,1.6030273437500002,-0.97138671875,9.6564453125,1.46484375,-0.42724609375,-1.40380859375,0.0,0.0,0.0
10:42:19.967, 1.6078125,0.09091796875000001,9.6181640625,1.4786132812500001,-0.9666015625000001,9.4650390625,0.9765625,0.0,-0.3662109375,-0.18310546875,0.6103515625,0.06103515625
10:42:20.078, 1.5168945312500002,0.019140625,9.627734375000001,1.6365234375000002,-0.9091796875000001,9.622949218750001,-0.42724609375,1.3427734375,0.79345703125,0.0,0.0,0.06103515625
10:42:20.191, 1.5503906250000001,-0.06220703125,9.68037109375,1.6078125,-0.9618164062500001,9.64208984375,0.1220703125,0.244140625,-2.25830078125,-0.06103515625,0.1220703125,0.1220703125
10:42:20.302, 1.53125,0.1244140625,9.59423828125,1.5791015625000002,-0.9570312500000001,9.64208984375,1.0986328125,0.91552734375,-1.40380859375,0.0,0.0,0.06103515625
10:42:20.413, 1.49775390625,0.06220703125,9.723437500000001,1.5599609375,-0.9618164062500001,9.6373046875,-0.8544921875,0.732421875,0.0,0.0,-0.1220703125,0.0
10:42:20.524, 1.512109375,0.0,9.70908203125,1.6030273437500002,-0.9474609375,9.61337890625,-0.8544921875,0.6103515625,0.9765625,-0.06103515625,0.18310546875,0.06103515625
10:42:20.637, 1.44990234375,-0.028710937500000002,9.651660156250001,1.56953125,-0.9426757812500001,9.599023437500001,0.8544921875,0.732421875,-0.18310546875,0.0,0.0,0.0
10:42:20.764, 1.50732421875,0.11005859375,9.7138671875,1.59345703125,-0.9426757812500001,9.64208984375,-0.79345703125,0.54931640625,0.18310546875,0.0,0.0,0.0
10:42:20.875, 1.4690429687500002,-0.08134765625000001,9.627734375000001,1.5886718750000002,-0.9139648437500001,9.60859375,-2.38037109375,0.0,1.40380859375,-0.06103515625,0.06103515625,-0.1220703125
10:42:20.987, 1.44033203125,-0.0765625,9.603808593750001,1.6221679687500001,-0.9378906250000001,9.651660156250001,0.8544921875,2.99072265625,0.18310546875,0.0,-0.06103515625,0.0
10:42:21.099, 1.4068359375000001,-0.11005859375,9.795214843750001,1.59345703125,-0.976171875,9.627734375000001,-0.3662109375,2.685546875,-4.150390625,0.0,0.0,0.0
10:42:21.210, 1.3589843750000001,-0.033496093750000004,9.589453125,1.5886718750000002,-0.9618164062500001,9.599023437500001,0.1220703125,1.89208984375,-4.2724609375,0.0,0.0,0.0
10:42:21.322, 1.2728515625,-0.21533203125000003,9.838281250000001,1.58388671875,-0.9331054687500001,9.6373046875,0.9765625,5.06591796875,-8.6669921875,0.0,0.0,0.0
10:42:21.433, 1.1580078125000002,0.03828125,9.6564453125,1.6173828125,-0.9283203125,9.6181640625,2.62451171875,2.38037109375,-10.8642578125,0.0,0.0,0.0
10:42:21.543, 1.0718750000000001,0.2966796875,9.85263671875,1.58388671875,-0.9618164062500001,9.5703125,2.8076171875,0.91552734375,-9.09423828125,0.0,0.0,0.0
10:42:21.655, 1.1915039062500001,0.401953125,9.622949218750001,1.6125976562500002,-0.9426757812500001,9.670800781250001,-0.91552734375,-0.8544921875,1.64794921875,0.0,0.0,0.0
10:42:21.766, 1.1962890625,0.172265625,9.73779296875,1.5886718750000002,-0.9666015625000001,9.60859375,-1.8310546875,0.244140625,3.84521484375,0.0,0.0,0.0
10:42:21.878, 1.1675781250000001,0.11005859375,9.61337890625,1.5791015625000002,-0.9378906250000001,9.627734375000001,-1.46484375,-0.8544921875,2.50244140625,0.0,0.0,0.0
10:42:21.989, 1.18671875,0.019140625,9.838281250000001,1.63173828125,-0.9666015625000001,9.627734375000001,-2.25830078125,0.8544921875,3.47900390625,0.0,0.0,0.0
10:42:22.100, 1.1962890625,-0.04306640625,9.6373046875,1.6173828125,-0.9570312500000001,9.599023437500001,-0.48828125,-0.8544921875,2.01416015625,0.0,0.0,0.0
10:42:22.212, 1.1915039062500001,-0.03828125,9.699511718750001,1.6030273437500002,-0.8948242187500001,9.6373046875,0.79345703125,0.48828125,0.1220703125,0.0,0.0,0.0
10:42:22.323, 1.1819335937500002,0.0861328125,9.76171875,1.6221679687500001,-0.9666015625000001,9.61337890625,1.64794921875,0.42724609375,-1.953125,0.0,0.0,0.0
10:42:22.436, 1.1819335937500002,0.0861328125,9.589453125,1.5886718750000002,-0.9283203125,9.60859375,0.0,-0.54931640625,0.6103515625,0.0,0.0,0.0
10:42:22.547, 1.1675781250000001,0.03828125,9.75693359375,1.6221679687500001,-0.9331054687500001,9.6181640625,0.18310546875,0.48828125,-0.54931640625,0.0,0.0,0.0
10:42:22.658, 1.1819335937500002,0.13398437500000002,9.723437500000001,1.6269531250000002,-0.9283203125,9.64208984375,0.6103515625,-0.244140625,0.6103515625,0.0,0.0,0.0
10:42:22.770, 1.22021484375,0.11962890625000001,9.5607421875,1.6030273437500002,-0.9666015625000001,9.59423828125,-0.9765625,-0.18310546875,1.15966796875,0.0,0.0,0.0
10:42:22.880, 1.2154296875000001,0.06220703125,9.766503906250001,1.6030273437500002,-0.9426757812500001,9.66123046875,-1.40380859375,0.6103515625,0.1220703125,0.0,0.0,0.0
10:42:22.991, 1.1771484375,0.033496093750000004,9.7138671875,1.6173828125,-0.9283203125,9.61337890625,-0.48828125,-0.48828125,0.91552734375,0.0,0.0,0.0
10:42:23.103, 1.2154296875000001,0.0765625,9.723437500000001,1.6030273437500002,-0.9618164062500001,9.6373046875,-0.06103515625,0.1220703125,-0.06103515625,0.0,0.0,0.0
10:42:23.214, 1.2154296875000001,0.028710937500000002,9.723437500000001,1.6173828125,-1.01923828125,9.68037109375,-0.06103515625,0.30517578125,0.54931640625,0.06103515625,0.06103515625,0.0
10:42:23.326, 1.22021484375,0.0861328125,9.68515625,1.56953125,-0.97138671875,9.646875000000001,-0.8544921875,-0.244140625,-0.06103515625,0.3662109375,0.18310546875,0.0
10:42:23.437, 1.21064453125,0.0861328125,9.675585937500001,1.5791015625000002,-0.9857421875000001,9.627734375000001,-0.3662109375,0.91552734375,0.9765625,-0.1220703125,0.0,0.0
10:42:23.550, 1.1771484375,0.014355468750000001,9.80478515625,1.6125976562500002,-0.9283203125,9.675585937500001,-0.1220703125,-0.42724609375,0.8544921875,0.0,0.18310546875,-0.06103515625
10:42:23.661, 1.21064453125,0.019140625,9.6564453125,1.6030273437500002,-0.9378906250000001,9.622949218750001,0.0,0.48828125,-0.18310546875,0.06103515625,0.1220703125,0.0
10:42:23.773, 1.20107421875,0.033496093750000004,9.76171875,1.6269531250000002,-0.9331054687500001,9.68515625,0.18310546875,-0.1220703125,0.48828125,0.0,0.244140625,0.0
10:42:23.884, 1.1962890625,0.0095703125,9.666015625,1.6078125,-0.9331054687500001,9.54638671875,0.30517578125,-0.244140625,0.18310546875,-0.06103515625,0.06103515625,0.06103515625
10:42:23.996, 1.22021484375,0.0861328125,9.75693359375,1.6125976562500002,-0.9378906250000001,9.6373046875,-0.30517578125,0.30517578125,0.06103515625,0.0,0.18310546875,0.0
10:42:24.107, 1.1388671875,0.0095703125,9.646875000000001,1.63173828125,-0.9474609375,9.61337890625,-0.67138671875,0.8544921875,0.8544921875,0.0,0.06103515625,0.0
10:42:24.218, 1.1915039062500001,0.033496093750000004,9.718652343750001,1.6508789062500002,-0.899609375,9.66123046875,-0.732421875,-0.06103515625,0.244140625,0.0,-0.18310546875,0.0
10:42:24.329, 1.1580078125000002,-0.0095703125,9.78564453125,1.5743164062500001,-0.9474609375,9.6564453125,-0.67138671875,0.48828125,0.42724609375,-0.06103515625,-0.06103515625,0.0
10:42:24.440, 1.1436523437500001,-0.014355468750000001,9.699511718750001,1.5886718750000002,-0.976171875,9.59423828125,-0.06103515625,0.244140625,0.732421875,-0.1220703125,-0.06103515625,0.06103515625
10:42:24.552, 1.21064453125,-0.052636718750000006,9.77607421875,1.56953125,-0.9570312500000001,9.6564453125,-0.6103515625,-0.732421875,0.54931640625,0.0,0.0,-0.06103515625
10:42:24.663, 1.1580078125000002,-0.014355468750000001,9.58466796875,1.665234375,-0.90439453125,9.68515625,0.0,0.732421875,0.1220703125,0.0,-0.30517578125,0.0
10:42:24.775, 1.16279296875,0.028710937500000002,9.92919921875,1.63173828125,-0.95224609375,9.63251953125,-0.48828125,0.06103515625,0.91552734375,0.0,0.1220703125,0.06103515625
10:42:24.886, 1.21064453125,0.028710937500000002,9.819140625000001,1.5791015625000002,-0.97138671875,9.666015625,-0.8544921875,-0.30517578125,1.3427734375,-0.06103515625,0.0,0.18310546875
10:42:24.998, 1.18671875,-0.095703125,9.651660156250001,1.6030273437500002,-0.9331054687500001,9.627734375000001,-1.708984375,0.48828125,2.38037109375,0.0,0.0,-0.06103515625
10:42:25.110, 1.15322265625,-0.13398437500000002,9.72822265625,1.6125976562500002,-0.9426757812500001,9.63251953125,-0.8544921875,0.244140625,-0.06103515625,0.0,0.0,0.0
10:42:25.220, 1.2154296875000001,-0.0861328125,9.7138671875,1.6078125,-0.97138671875,9.6373046875,0.54931640625,0.1220703125,-0.67138671875,0.0,0.244140625,0.0
10:42:25.331, 1.2154296875000001,-0.03828125,9.675585937500001,1.6125976562500002,-0.9570312500000001,9.6564453125,0.54931640625,-0.91552734375,1.0986328125,0.06103515625,-0.1220703125,0.0
10:42:25.443, 1.1819335937500002,0.0,9.742578125000001,1.6221679687500001,-0.9618164062500001,9.6564453125,-0.732421875,-0.6103515625,0.79345703125,0.0,0.0,0.0
10:42:25.553, 1.1771484375,-0.10048828125,9.70908203125,1.6078125,-0.9474609375,9.6181640625,-0.3662109375,0.30517578125,0.0,-0.06103515625,0.0,0.0
10:42:25.666, 1.1819335937500002,-0.07177734375,9.747363281250001,1.6221679687500001,-0.9474609375,9.603808593750001,-0.244140625,0.1220703125,-0.30517578125,0.0,0.0,0.0
10:42:25.777, 1.21064453125,-0.11005859375,9.75693359375,1.6173828125,-0.9187500000000001,9.5607421875,-0.732421875,0.3662109375,0.06103515625,0.0,0.0,0.0
10:42:25.888, 1.2058593750000002,-0.10048828125,9.68515625,1.6078125,-0.9570312500000001,9.603808593750001,0.06103515625,0.48828125,0.0,0.0,0.0,0.0
10:42:25.999, 1.17236328125,-0.08134765625000001,9.72822265625,1.6221679687500001,-0.9474609375,9.6564453125,0.0,0.79345703125,-1.03759765625,0.0,0.0,0.0
10:42:26.111, 1.1675781250000001,-0.019140625,9.6373046875,1.6078125,-0.9666015625000001,9.61337890625,0.48828125,0.42724609375,0.1220703125,0.0,0.0,0.0
