Time, AccX1, AccY1, AccZ1, AccX2, AccY2, AccZ2, AngVelX1, AngVelY1, AngVelZ1, AngVelX2, AngVelY2, AngVelZ2
11:22:36.709, 1.7130859375,0.34453125,9.862207031250001,0.0,0.0,0.0,1.46484375,0.91552734375,-0.244140625,0.0,0.0,0.0
11:22:36.819, 1.5264648437500001,0.7225585937500001,9.59423828125,1.990625,-0.13398437500000002,9.60859375,0.6103515625,-0.06103515625,-0.732421875,0.0,0.0,0.0
11:22:36.930, 1.4833984375,0.7225585937500001,9.666015625,1.9714843750000002,-0.0861328125,9.58466796875,0.79345703125,-0.06103515625,-0.244140625,0.0,0.0,0.0
11:22:37.041, 1.5743164062500001,0.6986328125000001,9.61337890625,1.9571289062500001,-0.10527343750000001,9.61337890625,-0.67138671875,0.1220703125,0.1220703125,0.0,0.0,0.0
11:22:37.152, 1.5025390625000001,0.61728515625,9.718652343750001,1.9427734375,-0.10048828125,9.58466796875,-0.79345703125,0.42724609375,0.67138671875,0.0,0.0,0.0
11:22:37.264, 1.53125,0.64599609375,9.66123046875,2.0049804687500004,-0.0765625,9.5416015625,-0.06103515625,0.42724609375,-0.67138671875,0.0,0.0,0.0
11:22:37.374, 1.512109375,0.6555664062500001,9.60859375,1.9810546875000001,-0.10048828125,9.551171875000001,-0.30517578125,0.1220703125,-0.06103515625,0.0,0.0,0.0
11:22:37.486, 1.5025390625000001,0.63642578125,9.694726562500001,1.9954101562500002,-0.11005859375,9.603808593750001,-0.244140625,0.67138671875,-0.48828125,0.0,0.0,0.0
11:22:37.597, 1.48818359375,0.6986328125000001,9.704296875,2.01455078125,-0.0861328125,9.666015625,0.6103515625,0.48828125,-0.244140625,0.0,0.0,0.0
11:22:37.708, 1.5168945312500002,0.6268554687500001,9.5416015625,1.9954101562500002,-0.09091796875000001,9.627734375000001,-0.48828125,0.18310546875,0.54931640625,0.0,0.0,0.0
11:22:37.819, 1.4690429687500002,0.6747070312500001,9.68037109375,2.0049804687500004,-0.09091796875000001,9.56552734375,-0.244140625,0.18310546875,0.0,0.0,0.0,0.0
11:22:37.931, 1.512109375,0.6412109375,9.603808593750001,1.9475585937500002,-0.10048828125,9.5703125,0.48828125,0.3662109375,-0.67138671875,0.0,0.0,0.0
11:22:38.041, 1.4642578125,0.6747070312500001,9.699511718750001,2.0193359375,-0.10048828125,9.675585937500001,0.18310546875,-0.06103515625,-0.18310546875,0.0,0.0,0.0
11:22:38.159, 1.41640625,0.6603515625,9.6373046875,1.9092773437500001,-0.11962890625000001,9.579882812500001,-0.6103515625,0.0,0.9765625,0.0,0.0,0.0
11:22:38.272, 1.4690429687500002,0.593359375,9.771289062500001,2.01455078125,-0.11962890625000001,9.651660156250001,-0.67138671875,0.18310546875,0.3662109375,0.0,0.0,0.0
11:22:38.382, 1.54560546875,0.6220703125,9.72822265625,2.0193359375,-0.0861328125,9.59423828125,0.79345703125,-0.67138671875,-0.79345703125,0.0,0.0,0.0
11:22:38.491, 1.3972656250000002,0.765625,9.599023437500001,1.9379882812500002,-0.12919921875,9.599023437500001,0.79345703125,0.18310546875,1.0986328125,0.0,0.0,0.0
11:22:38.602, 1.4211914062500002,0.708203125,9.675585937500001,2.04326171875,-0.13876953125000002,9.503320312500001,-0.1220703125,-0.3662109375,3.173828125,0.0,0.0,0.0
11:22:38.712, 1.6078125,0.66513671875,9.795214843750001,2.0001953125000003,-0.095703125,9.6373046875,0.3662109375,-2.197265625,4.21142578125,0.0,0.0,0.0
11:22:38.823, 1.39248046875,0.61728515625,9.651660156250001,1.9379882812500002,-0.11484375000000001,9.5224609375,-4.0283203125,-7.14111328125,3.0517578125,0.0,0.0,0.0
11:22:38.934, 1.88056640625,0.38759765625000003,9.5416015625,1.97626953125,-0.10048828125,9.579882812500001,-0.244140625,-1.953125,1.89208984375,0.0,0.0,0.0
11:22:39.045, 1.8901367187500002,0.5120117187500001,9.455468750000001,1.9619140625000002,-0.10527343750000001,9.603808593750001,-1.46484375,1.0986328125,0.30517578125,0.0,0.0,0.0
11:22:39.155, 1.63173828125,0.41630859375,9.455468750000001,1.97626953125,-0.0765625,9.532031250000001,1.77001953125,1.8310546875,-4.21142578125,0.0,0.0,0.0
11:22:39.266, 1.3350585937500001,0.68427734375,9.766503906250001,1.9619140625000002,-0.153125,9.589453125,3.173828125,3.0517578125,-2.197265625,0.0,0.0,0.0
11:22:39.377, 1.5886718750000002,0.5455078125,9.53681640625,1.96669921875,-0.11962890625000001,9.599023437500001,0.0,-2.01416015625,-2.8076171875,0.0,0.0,0.0
11:22:39.488, 1.59345703125,0.8948242187500001,9.5607421875,1.9714843750000002,-0.11005859375,9.58466796875,0.18310546875,0.30517578125,-1.64794921875,0.0,0.0,0.0
11:22:39.599, 1.4546875000000001,0.61728515625,9.895703125,1.9140625000000002,-0.09091796875000001,9.575097656250001,1.28173828125,-1.953125,-3.173828125,0.0,0.0,0.0
11:22:39.709, 1.44033203125,0.8326171875,9.87177734375,1.990625,-0.13398437500000002,9.575097656250001,5.31005859375,1.3427734375,-2.3193359375,0.0,0.0,0.0
11:22:39.819, 1.6748046875000002,0.8469726562500001,9.4267578125,1.9858398437500002,-0.08134765625000001,9.60859375,1.953125,4.08935546875,-2.62451171875,0.0,0.0,0.0
11:22:39.929, 1.56953125,0.50244140625,9.7330078125,1.990625,-0.11962890625000001,9.63251953125,-2.44140625,9.21630859375,-6.53076171875,0.0,0.0,0.0
11:22:40.040, 1.3015625000000002,0.248828125,9.82392578125,1.9714843750000002,-0.1244140625,9.699511718750001,2.99072265625,8.36181640625,-3.72314453125,0.0,0.0,0.0
11:22:40.159, 1.03359375,0.7225585937500001,9.78564453125,1.9714843750000002,-0.09091796875000001,9.622949218750001,1.46484375,4.5166015625,4.2724609375,0.0,0.0,0.0
11:22:40.270, 0.68427734375,0.87568359375,9.56552734375,1.9571289062500001,-0.13398437500000002,9.58466796875,-5.37109375,5.06591796875,-7.99560546875,0.0,0.0,0.0
11:22:40.381, 0.7273437500000001,0.9378906250000001,9.70908203125,2.0241210937500003,-0.0861328125,9.58466796875,-5.79833984375,4.5166015625,-4.0283203125,0.0,0.0,0.0
11:22:40.491, 0.7991210937500001,0.6412109375,9.579882812500001,1.9954101562500002,-0.13398437500000002,9.80478515625,-2.01416015625,-3.173828125,4.21142578125,0.0,0.1220703125,0.0
11:22:40.601, 0.9474609375,0.7225585937500001,9.704296875,1.9571289062500001,-0.11484375000000001,9.651660156250001,2.8076171875,-1.0986328125,6.77490234375,0.0,-0.3662109375,-0.06103515625
11:22:40.711, 0.9139648437500001,0.7560546875,9.8765625,1.9619140625000002,-0.11962890625000001,9.53681640625,0.0,-3.173828125,7.6904296875,0.06103515625,-0.18310546875,0.0
11:22:40.821, 1.0240234375000001,0.38759765625000003,9.7521484375,1.9332031250000001,-0.11484375000000001,9.6181640625,-6.9580078125,-5.0048828125,-2.44140625,0.0,-0.244140625,0.06103515625
11:22:40.931, 1.2058593750000002,0.9953125,9.58466796875,1.9427734375,-0.10048828125,9.63251953125,-5.43212890625,-8.056640625,-5.18798828125,0.0,0.0,0.0
11:22:41.042, 1.4546875000000001,0.287109375,9.5224609375,1.95234375,-0.11962890625000001,9.58466796875,3.72314453125,-0.06103515625,17.63916015625,0.06103515625,0.1220703125,0.0
11:22:41.152, 1.33984375,0.23447265625000002,9.895703125,1.990625,-0.11962890625000001,9.56552734375,1.3427734375,0.732421875,-4.2724609375,0.0,0.0,0.0
11:22:41.263, 1.244140625,0.516796875,9.666015625,2.0049804687500004,-0.153125,9.54638671875,-0.18310546875,-0.732421875,3.35693359375,-0.1220703125,-0.1220703125,-0.1220703125
11:22:41.373, 0.7034179687500001,0.52158203125,9.6564453125,1.9954101562500002,-0.095703125,9.59423828125,1.40380859375,0.9765625,-1.15966796875,0.0,-0.244140625,0.1220703125
11:22:41.484, 2.9620117187500004,-0.09091796875000001,9.1875,1.894921875,-0.12919921875,9.6373046875,-2.3193359375,-5.92041015625,-1.15966796875,0.06103515625,-0.18310546875,-0.18310546875
11:22:41.594, 1.5886718750000002,0.44501953125000004,9.46982421875,2.0049804687500004,-0.13398437500000002,9.575097656250001,-2.8076171875,-10.43701171875,-1.64794921875,-0.18310546875,0.0,0.06103515625
11:22:41.704, 0.50244140625,0.80390625,10.30244140625,1.9427734375,-0.11484375000000001,9.64208984375,2.13623046875,-1.77001953125,7.87353515625,0.0,0.0,0.0
11:22:41.813, 0.63642578125,0.6555664062500001,9.8095703125,1.894921875,-0.153125,9.579882812500001,-0.42724609375,-11.23046875,9.09423828125,0.0,0.06103515625,0.0
11:22:41.924, 1.4546875000000001,0.28232421875,9.68037109375,1.97626953125,-0.13398437500000002,9.48896484375,-4.21142578125,-13.916015625,0.48828125,0.06103515625,-0.18310546875,0.0
11:22:42.033, 2.8375976562500003,-0.00478515625,9.455468750000001,1.9236328125000002,-0.12919921875,9.551171875000001,-2.0751953125,-0.18310546875,0.0,0.1220703125,-0.18310546875,-0.06103515625
11:22:42.144, 1.9379882812500002,0.31582031250000003,9.68037109375,1.9475585937500002,-0.1244140625,9.5703125,-0.30517578125,4.8828125,-4.21142578125,-0.06103515625,0.06103515625,0.0
11:22:42.248, 1.6748046875000002,0.31103515625,9.8287109375,1.92841796875,-0.10048828125,9.666015625,-0.8544921875,3.662109375,-5.43212890625,0.0,-0.06103515625,-0.06103515625
11:22:42.358, 1.40205078125,0.669921875,9.64208984375,1.9571289062500001,-0.11484375000000001,9.589453125,-2.44140625,2.86865234375,0.732421875,0.0,0.0,0.0
11:22:42.468, 1.5599609375,0.11005859375,9.723437500000001,1.9092773437500001,-0.11005859375,9.56552734375,1.77001953125,-0.8544921875,1.77001953125,0.0,0.0,0.0
11:22:42.579, 1.54560546875,0.5072265625000001,9.73779296875,1.92841796875,-0.11962890625000001,9.5607421875,0.244140625,1.708984375,0.0,0.0,0.0,0.0
11:22:42.689, 1.34462890625,0.46416015625,9.78564453125,2.0576171875,-0.11005859375,9.771289062500001,0.54931640625,-2.25830078125,1.89208984375,0.0,0.0,0.0
11:22:42.800, 1.7944335937500002,0.09091796875000001,9.503320312500001,1.88056640625,-0.11962890625000001,9.58466796875,-2.3193359375,0.6103515625,1.708984375,0.0,0.1220703125,0.1220703125
11:22:42.911, 1.9475585937500002,0.39716796875000004,9.87177734375,1.9475585937500002,-0.13876953125000002,9.64208984375,-0.244140625,2.99072265625,3.23486328125,0.1220703125,-0.06103515625,0.06103515625
11:22:43.022, 1.9619140625000002,-0.03828125,9.479394531250001,2.0001953125000003,-0.11962890625000001,9.60859375,0.6103515625,-0.54931640625,2.62451171875,0.0,0.0,0.0
11:22:43.133, 1.7178710937500001,0.7177734375,9.40283203125,1.95234375,-0.095703125,9.5703125,6.53076171875,-2.5634765625,-3.60107421875,0.0,0.244140625,0.0
11:22:43.244, 1.7896484375000001,0.7034179687500001,9.56552734375,1.9379882812500002,-0.11484375000000001,9.670800781250001,-1.0986328125,-0.91552734375,-2.25830078125,-0.1220703125,-0.1220703125,-0.1220703125
11:22:43.354, 1.703515625,0.49765625,9.76171875,1.9858398437500002,-0.11962890625000001,9.5607421875,-1.5869140625,0.54931640625,-3.662109375,-0.18310546875,-0.1220703125,0.0
11:22:43.467, 1.91884765625,0.48330078125000003,9.42197265625,1.9427734375,-0.11484375000000001,9.589453125,-9.94873046875,-1.77001953125,-2.25830078125,-0.06103515625,-0.18310546875,0.0
11:22:43.577, 1.7705078125000002,0.12919921875,9.58466796875,1.9332031250000001,-0.11005859375,9.6181640625,-4.82177734375,3.23486328125,-3.60107421875,0.0,0.06103515625,0.0
11:22:43.689, 1.53125,0.3541015625,9.790429687500001,1.8997070312500002,-0.13876953125000002,9.6373046875,-0.67138671875,4.08935546875,-3.2958984375,0.0,0.1220703125,0.0
11:22:43.800, 1.68916015625,0.028710937500000002,9.53681640625,1.9092773437500001,-0.11005859375,9.579882812500001,-1.03759765625,2.5634765625,-2.13623046875,0.0,0.0,0.0
11:22:43.911, 1.6078125,0.287109375,9.857421875,1.9571289062500001,-0.1244140625,9.579882812500001,-0.244140625,-2.5634765625,-4.94384765625,0.0,0.0,0.0
11:22:44.021, 1.59345703125,0.11962890625000001,9.670800781250001,1.9571289062500001,-0.10048828125,9.60859375,4.39453125,-7.6904296875,0.42724609375,0.0,0.0,0.0
11:22:44.132, 1.9044921875,0.47851562500000006,9.76171875,1.8997070312500002,-0.1244140625,9.59423828125,-6.16455078125,-1.28173828125,-0.54931640625,0.0,0.0,0.0
11:22:44.234, 1.7944335937500002,0.40673828125000006,9.45068359375,1.9571289062500001,-0.1244140625,9.51767578125,-4.57763671875,-2.99072265625,1.220703125,0.0,0.0,0.0
11:22:44.346, 2.2203125000000004,0.20576171875000002,9.287988281250001,1.96669921875,-0.11962890625000001,9.579882812500001,2.50244140625,0.0,1.0986328125,0.0,0.0,0.0
11:22:44.458, 2.0958984375000003,0.37802734375,9.63251953125,1.9619140625000002,-0.1244140625,9.527246093750001,-0.06103515625,-0.91552734375,-1.64794921875,0.0,0.0,0.0
11:22:44.568, 1.87099609375,0.20576171875000002,9.436328125000001,1.9571289062500001,-0.11962890625000001,9.622949218750001,0.1220703125,0.6103515625,1.52587890625,0.0,0.0,0.0
11:22:44.680, 1.67958984375,0.033496093750000004,9.747363281250001,1.9332031250000001,-0.11484375000000001,9.64208984375,3.60107421875,1.220703125,1.28173828125,0.0,0.0,0.0
11:22:44.791, 1.82314453125,0.401953125,9.627734375000001,1.9714843750000002,-0.10048828125,9.64208984375,2.0751953125,-1.5869140625,1.28173828125,0.0,0.0,0.0
11:22:44.902, 2.2203125000000004,0.13876953125000002,9.144433593750001,1.9427734375,-0.12919921875,9.622949218750001,-4.45556640625,4.5166015625,0.18310546875,0.0,0.0,0.0
11:22:45.013, 1.6939453125000001,0.26318359375,9.981835937500001,1.9475585937500002,-0.12919921875,9.60859375,-0.732421875,2.685546875,-2.74658203125,0.0,0.0,0.0
11:22:45.123, 2.1246093750000004,0.36367187500000003,9.551171875000001,1.894921875,-0.095703125,9.431542968750001,-1.3427734375,2.197265625,-3.41796875,0.0,0.0,0.0
11:22:45.233, 1.7417968750000001,0.3541015625,9.398046875,1.96669921875,-0.13398437500000002,9.622949218750001,-3.0517578125,7.62939453125,-1.46484375,0.0,0.0,0.0
11:22:45.345, 1.24892578125,0.30146484375000004,9.70908203125,1.92841796875,-0.1435546875,9.5703125,-1.52587890625,8.30078125,1.77001953125,0.0,0.0,0.0
11:22:45.455, 1.282421875,0.15791015625000002,9.316699218750001,1.87099609375,-0.11962890625000001,9.59423828125,-2.99072265625,8.30078125,2.44140625,0.30517578125,0.06103515625,0.0
11:22:45.566, 1.052734375,-0.052636718750000006,9.94833984375,1.8901367187500002,-0.11484375000000001,9.589453125,-2.13623046875,8.1787109375,1.15966796875,0.0,0.1220703125,0.0
11:22:45.676, 1.0623046875000002,-0.11484375000000001,9.670800781250001,1.9714843750000002,-0.10048828125,9.589453125,1.708984375,5.9814453125,-0.48828125,0.0,0.06103515625,0.0
11:22:45.787, 0.7369140625,0.11005859375,10.010546875000001,1.8997070312500002,-0.06699218750000001,9.603808593750001,-0.06103515625,1.03759765625,-0.54931640625,-0.1220703125,0.0,-0.06103515625
11:22:45.897, 0.7512695312500001,0.35888671875,9.9435546875,1.9619140625000002,-0.153125,9.555957031250001,4.7607421875,-14.46533203125,3.2958984375,0.18310546875,0.0,0.06103515625
11:22:46.007, 1.225,-0.1244140625,9.819140625000001,1.9714843750000002,-0.0765625,9.5703125,5.126953125,-15.07568359375,7.50732421875,-0.06103515625,0.06103515625,-0.1220703125
11:22:46.118, 1.92841796875,0.10048828125,9.335839843750001,1.9379882812500002,-0.11484375000000001,9.59423828125,2.9296875,-11.8408203125,-3.2958984375,0.0,-0.06103515625,0.06103515625
11:22:46.221, 2.009765625,0.46894531250000004,9.34541015625,1.9571289062500001,-0.11005859375,9.599023437500001,4.21142578125,-5.79833984375,-3.60107421875,-0.1220703125,0.06103515625,0.0
11:22:46.332, 1.7322265625000002,0.27753906250000004,9.704296875,1.9044921875,-0.13398437500000002,9.599023437500001,2.0751953125,6.65283203125,-10.6201171875,0.06103515625,0.0,-0.1220703125
11:22:46.444, 1.4786132812500001,0.3349609375,9.843066406250001,1.9092773437500001,-0.1244140625,9.10615234375,-0.30517578125,-0.67138671875,-10.986328125,-1.8310546875,0.06103515625,0.244140625
11:22:46.555, 1.3876953125,0.5790039062500001,9.37890625,1.9044921875,-0.10048828125,9.704296875,-2.01416015625,-5.2490234375,-9.94873046875,0.42724609375,0.732421875,0.0
11:22:46.666, 1.6125976562500002,0.3349609375,9.39326171875,1.91884765625,-0.18183593750000002,9.4650390625,-3.90625,-5.4931640625,-8.48388671875,0.06103515625,0.06103515625,-0.06103515625
11:22:46.778, 2.0480468750000003,0.6268554687500001,9.551171875000001,1.92841796875,-0.10527343750000001,9.627734375000001,5.18798828125,2.01416015625,-4.2724609375,-0.06103515625,0.0,0.244140625
11:22:46.889, 1.9332031250000001,0.5359375000000001,9.8478515625,1.9332031250000001,-0.17705078125,9.646875000000001,3.2958984375,-2.0751953125,-1.40380859375,0.0,0.1220703125,-0.06103515625
11:22:47.000, 1.9140625000000002,0.76083984375,9.60859375,1.96669921875,-0.1435546875,9.579882812500001,0.18310546875,-2.50244140625,-0.244140625,0.06103515625,0.18310546875,0.06103515625
11:22:47.112, 1.9092773437500001,0.5837890625000001,9.436328125000001,1.97626953125,-0.10048828125,9.527246093750001,-1.46484375,1.40380859375,-0.3662109375,-0.06103515625,0.0,0.0
11:22:47.223, 1.9379882812500002,0.6077148437500001,9.7330078125,1.95234375,-0.13398437500000002,9.59423828125,2.9296875,-1.0986328125,0.18310546875,-0.06103515625,0.0,0.0
11:22:47.335, 1.8757812500000002,0.6794921875000001,9.575097656250001,1.97626953125,-0.11962890625000001,9.579882812500001,-0.54931640625,2.13623046875,1.5869140625,0.06103515625,0.06103515625,0.0
11:22:47.446, 1.7944335937500002,0.5263671875,9.675585937500001,1.9092773437500001,-0.1244140625,9.627734375000001,-0.67138671875,0.67138671875,2.0751953125,0.06103515625,0.0,-0.06103515625
11:22:47.557, 1.7561523437500002,0.54072265625,9.599023437500001,1.9092773437500001,-0.11484375000000001,9.622949218750001,-0.91552734375,1.03759765625,0.54931640625,0.0,0.0,0.0
11:22:47.669, 1.97626953125,0.5646484375,9.512890625,1.9332031250000001,-0.13398437500000002,9.5703125,1.89208984375,-0.9765625,0.42724609375,0.0,0.0,0.0
11:22:47.780, 1.8375000000000001,0.6507812500000001,9.56552734375,1.9044921875,-0.1244140625,9.59423828125,-0.91552734375,1.03759765625,0.9765625,0.0,0.0,0.0
11:22:47.892, 1.8183593750000002,0.5359375000000001,9.59423828125,1.9379882812500002,-0.095703125,9.627734375000001,0.0,0.30517578125,1.64794921875,0.0,0.0,0.0
11:22:48.004, 1.7561523437500002,0.516796875,9.575097656250001,1.9858398437500002,-0.1435546875,9.60859375,0.91552734375,2.62451171875,0.8544921875,0.0,0.0,0.0
11:22:48.117, 1.665234375,0.5837890625000001,9.603808593750001,1.9714843750000002,-0.12919921875,9.5607421875,-0.79345703125,4.8828125,0.732421875,0.0,0.0,0.0
11:22:48.221, 1.59345703125,0.59814453125,9.723437500000001,1.95234375,-0.11005859375,9.603808593750001,-0.91552734375,4.69970703125,0.18310546875,0.0,0.0,0.0
11:22:48.332, 1.6508789062500002,0.49765625,9.666015625,1.9427734375,-0.09091796875000001,9.599023437500001,1.8310546875,-1.64794921875,1.0986328125,0.0,0.0,0.0
11:22:48.442, 1.7083007812500002,0.5550781250000001,9.60859375,1.9475585937500002,-0.153125,9.6181640625,0.9765625,-1.15966796875,-0.42724609375,0.0,0.0,0.0
11:22:48.569, 1.7609375,0.7225585937500001,9.589453125,1.9092773437500001,-0.10527343750000001,9.627734375000001,-0.30517578125,0.42724609375,1.15966796875,0.0,0.0,0.0
11:22:48.679, 1.703515625,0.708203125,9.59423828125,2.0049804687500004,-0.13398437500000002,9.551171875000001,-2.3193359375,5.2490234375,6.28662109375,0.0,0.0,0.0
11:22:48.791, 1.5264648437500001,0.6603515625,9.7138671875,1.95234375,-0.11484375000000001,9.59423828125,-0.6103515625,3.7841796875,11.71875,0.0,0.0,0.0
11:22:48.902, 1.4451171875000002,0.45937500000000003,9.6564453125,1.97626953125,-0.1244140625,9.622949218750001,-1.40380859375,2.8076171875,14.22119140625,0.0,0.0,0.0
11:22:49.013, 1.4546875000000001,0.29189453125000003,9.70908203125,1.95234375,-0.14833984375,9.5607421875,-3.90625,1.64794921875,11.8408203125,0.0,0.0,0.0
11:22:49.124, 1.44033203125,0.033496093750000004,9.70908203125,1.9236328125000002,-0.11484375000000001,9.6181640625,-5.06591796875,0.48828125,6.28662109375,0.0,0.0,0.0
11:22:49.235, 1.512109375,0.08134765625000001,9.718652343750001,1.9619140625000002,-0.15791015625000002,9.603808593750001,-2.38037109375,-1.46484375,-0.91552734375,0.0,0.0,0.0
11:22:49.345, 1.5551757812500002,0.06699218750000001,9.64208984375,1.96669921875,-0.11962890625000001,9.579882812500001,0.732421875,-0.79345703125,0.1220703125,0.0,0.0,0.0
11:22:49.456, 1.5216796875,0.033496093750000004,9.723437500000001,1.9714843750000002,-0.20576171875000002,9.287988281250001,2.01416015625,-1.52587890625,-1.52587890625,0.06103515625,-0.3662109375,0.0
11:22:49.567, 1.5503906250000001,0.2009765625,9.68515625,2.0384765625,-0.0765625,9.58466796875,5.43212890625,-2.50244140625,-5.31005859375,0.0,0.06103515625,0.0
11:22:49.678, 1.5886718750000002,0.5455078125,9.66123046875,1.8853515625000001,-0.172265625,9.63251953125,4.5166015625,-2.0751953125,-4.57763671875,0.0,0.0,0.0
11:22:49.789, 1.6508789062500002,0.5646484375,9.60859375,1.9954101562500002,-0.153125,9.5607421875,1.5869140625,-1.46484375,-0.91552734375,0.0,0.06103515625,0.0
11:22:49.900, 1.7178710937500001,0.42587890625,9.704296875,1.990625,-0.11962890625000001,9.599023437500001,1.15966796875,-0.9765625,0.9765625,0.06103515625,0.0,-0.06103515625
11:22:50.010, 1.6556640625,0.46894531250000004,9.603808593750001,1.9427734375,-0.08134765625000001,9.455468750000001,2.0751953125,0.18310546875,1.28173828125,-0.244140625,0.0,0.0
11:22:50.122, 1.64130859375,0.5311523437500001,9.723437500000001,1.9858398437500002,-0.153125,9.589453125,1.8310546875,-0.1220703125,-0.1220703125,-0.1220703125,-0.1220703125,0.0
11:22:50.225, 1.6125976562500002,0.5837890625000001,9.627734375000001,1.9427734375,-0.172265625,9.54638671875,-2.38037109375,1.15966796875,0.67138671875,0.0,0.0,0.1220703125
11:22:50.335, 1.5743164062500001,0.38759765625000003,9.73779296875,1.9714843750000002,-0.13398437500000002,9.6373046875,-1.52587890625,-0.1220703125,1.8310546875,0.06103515625,0.0,0.0
11:22:50.446, 1.6269531250000002,0.43544921875000003,9.622949218750001,1.9427734375,-0.09091796875000001,9.5416015625,-0.244140625,-2.3193359375,-0.91552734375,-0.1220703125,0.06103515625,0.0
11:22:50.555, 1.7226562500000002,0.43544921875000003,9.63251953125,1.92841796875,-0.17705078125,9.532031250000001,-0.1220703125,-2.50244140625,-2.685546875,-0.06103515625,-0.18310546875,0.0
11:22:50.666, 1.7322265625000002,0.37802734375,9.599023437500001,1.9475585937500002,-0.13398437500000002,9.66123046875,-1.52587890625,0.79345703125,0.732421875,0.1220703125,0.0,0.06103515625
11:22:50.778, 1.7226562500000002,0.28232421875,9.64208984375,1.8901367187500002,-0.11484375000000001,9.6181640625,-0.48828125,-0.54931640625,-0.54931640625,0.0,-0.06103515625,0.0
11:22:50.889, 1.77529296875,0.5072265625000001,9.54638671875,1.97626953125,-0.153125,9.5416015625,0.9765625,-0.1220703125,-1.708984375,0.06103515625,0.1220703125,0.0
11:22:51.000, 1.8087890625,0.6555664062500001,9.6373046875,1.97626953125,-0.2009765625,9.527246093750001,-1.0986328125,1.3427734375,1.708984375,0.0,0.0,0.0
11:22:51.111, 1.6843750000000002,0.31103515625,9.63251953125,1.91884765625,-0.13876953125000002,9.532031250000001,-4.2724609375,2.25830078125,3.72314453125,0.0,0.0,0.0
11:22:51.222, 1.665234375,0.13398437500000002,9.666015625,1.9475585937500002,-0.09091796875000001,9.68037109375,-3.23486328125,1.40380859375,0.6103515625,0.0,0.0,0.0
11:22:51.332, 1.6604492187500002,0.23447265625000002,9.651660156250001,1.9379882812500002,-0.15791015625000002,9.646875000000001,-0.91552734375,0.67138671875,-1.40380859375,0.0,0.0,0.0
11:22:51.443, 1.64130859375,0.23447265625000002,9.651660156250001,1.9236328125000002,-0.12919921875,9.6373046875,-0.91552734375,1.03759765625,0.6103515625,0.0,0.0,0.0
11:22:51.554, 1.6078125,0.0861328125,9.675585937500001,1.96669921875,-0.0861328125,9.5416015625,-0.48828125,0.8544921875,0.48828125,0.0,0.0,0.0
11:22:51.665, 1.58388671875,0.11962890625000001,9.66123046875,1.91884765625,-0.16748046875,9.61337890625,1.46484375,-1.15966796875,-2.62451171875,0.0,0.0,0.0
11:22:51.775, 1.6460937500000001,0.33974609375000003,9.704296875,1.95234375,-0.16269531250000002,9.5703125,0.91552734375,-2.01416015625,-2.86865234375,0.0,0.0,0.0
11:22:51.886, 1.7561523437500002,0.31582031250000003,9.5416015625,1.96669921875,-0.15791015625000002,9.6181640625,-0.54931640625,-1.220703125,-1.40380859375,0.0,0.0,0.0
11:22:51.996, 1.7657226562500001,0.27753906250000004,9.651660156250001,1.894921875,-0.1244140625,9.51767578125,-0.48828125,0.54931640625,0.0,0.0,0.0,0.0
11:22:52.106, 1.703515625,0.28232421875,9.718652343750001,2.009765625,-0.12919921875,9.68994140625,-0.06103515625,0.42724609375,-0.244140625,-0.1220703125,-0.244140625,0.1220703125
11:22:52.210, 1.6987304687500002,0.2583984375,9.66123046875,1.95234375,-0.12919921875,9.555957031250001,-0.06103515625,0.244140625,-0.6103515625,0.0,-0.1220703125,0.0
11:22:52.320, 1.68916015625,0.27753906250000004,9.66123046875,1.9810546875000001,-0.19140625,9.63251953125,-0.3662109375,0.42724609375,0.3662109375,-0.1220703125,0.0,0.0
11:22:52.430, 1.665234375,0.19619140625,9.6564453125,1.9236328125000002,-0.1435546875,9.64208984375,-0.3662109375,0.732421875,0.6103515625,0.0,0.06103515625,-0.18310546875
11:22:52.540, 1.6508789062500002,0.19619140625,9.6564453125,1.91884765625,-0.095703125,9.579882812500001,0.30517578125,-0.30517578125,0.06103515625,0.0,-0.06103515625,0.0
11:22:52.666, 1.6556640625,0.26796875000000003,9.622949218750001,1.9140625000000002,-0.13398437500000002,9.5607421875,0.6103515625,-0.1220703125,-0.54931640625,0.0,0.0,0.0
11:22:52.776, 1.6365234375000002,0.287109375,9.6373046875,1.9379882812500002,-0.15791015625000002,9.56552734375,0.06103515625,0.06103515625,0.0,0.0,-0.06103515625,0.0
11:22:52.888, 1.6939453125000001,0.25361328125000004,9.6373046875,1.9714843750000002,-0.16748046875,9.675585937500001,-0.3662109375,0.06103515625,0.54931640625,0.244140625,0.244140625,0.1220703125
11:22:52.998, 1.6508789062500002,0.21054687500000002,9.651660156250001,1.9044921875,-0.153125,9.603808593750001,-0.244140625,0.1220703125,-0.06103515625,0.0,0.0,-0.06103515625
11:22:53.108, 1.6460937500000001,0.33017578125,9.59423828125,1.8997070312500002,-0.13876953125000002,9.579882812500001,0.54931640625,0.732421875,0.06103515625,0.0,-0.06103515625,-0.06103515625
11:22:53.219, 1.6604492187500002,0.26318359375,9.76171875,1.9571289062500001,-0.13876953125000002,9.56552734375,-0.42724609375,-0.3662109375,0.6103515625,0.0,0.0,0.0
11:22:53.329, 1.68916015625,0.2009765625,9.5703125,1.9332031250000001,-0.16269531250000002,9.646875000000001,-0.732421875,-0.3662109375,0.79345703125,0.06103515625,0.18310546875,0.0
11:22:53.439, 1.6508789062500002,0.20576171875000002,9.599023437500001,1.9571289062500001,-0.11005859375,9.53681640625,0.06103515625,0.732421875,0.0,-0.244140625,0.0,0.0
11:22:53.550, 1.665234375,0.31582031250000003,9.75693359375,1.9858398437500002,-0.14833984375,9.61337890625,-0.48828125,0.06103515625,-0.18310546875,-0.06103515625,0.0,-0.1220703125
11:22:53.660, 1.7178710937500001,0.27275390625,9.599023437500001,1.9140625000000002,-0.11005859375,9.512890625,-2.3193359375,0.67138671875,1.89208984375,0.0,0.0,0.0
11:22:53.769, 1.6269531250000002,0.14833984375,9.6564453125,1.8901367187500002,-0.172265625,9.622949218750001,-2.3193359375,2.50244140625,2.62451171875,0.0,0.0,0.0
11:22:53.880, 1.512109375,0.07177734375,9.603808593750001,1.9236328125000002,-0.057421875000000004,9.474609375,-1.953125,2.50244140625,3.0517578125,0.0,0.0,0.0
11:22:53.991, 1.5647460937500002,0.0,9.843066406250001,1.9619140625000002,-0.13398437500000002,9.627734375000001,-0.6103515625,0.91552734375,2.01416015625,-0.30517578125,0.18310546875,0.0
11:22:54.101, 1.512109375,0.02392578125,9.61337890625,1.894921875,-0.13876953125000002,9.460253906250001,-0.06103515625,0.30517578125,0.42724609375,-0.06103515625,0.06103515625,0.1220703125
11:22:54.204, 1.4642578125,0.03828125,9.771289062500001,1.9379882812500002,-0.19619140625,9.627734375000001,-0.06103515625,0.06103515625,0.91552734375,0.0,0.0,0.18310546875
11:22:54.314, 1.5264648437500001,-0.033496093750000004,9.742578125000001,1.9858398437500002,-0.11962890625000001,9.651660156250001,0.67138671875,-1.0986328125,0.42724609375,0.1220703125,0.0,0.0
11:22:54.424, 1.49775390625,0.033496093750000004,9.49853515625,1.97626953125,-0.11005859375,9.72822265625,1.220703125,-0.8544921875,-2.38037109375,0.244140625,0.0,-0.1220703125
11:22:54.534, 1.6221679687500001,0.13398437500000002,9.699511718750001,1.95234375,-0.1244140625,9.555957031250001,0.48828125,-1.220703125,-0.91552734375,-0.18310546875,0.1220703125,-0.06103515625
11:22:54.645, 1.5743164062500001,0.033496093750000004,9.64208984375,2.0001953125000003,-0.17705078125,9.508105468750001,-0.18310546875,0.18310546875,-0.1220703125,0.30517578125,0.0,0.06103515625
11:22:54.754, 1.6748046875000002,0.1244140625,9.66123046875,1.9810546875000001,-0.0861328125,9.54638671875,1.8310546875,-1.28173828125,-1.46484375,-0.1220703125,0.0,0.1220703125
11:22:54.859, 1.6221679687500001,0.172265625,9.579882812500001,1.8901367187500002,-0.18662109375000002,9.575097656250001,0.48828125,-0.1220703125,-1.46484375,0.0,0.0,0.06103515625
11:22:54.968, 1.64130859375,0.22490234375,9.66123046875,1.9475585937500002,-0.11005859375,9.56552734375,-0.48828125,1.40380859375,0.6103515625,-0.1220703125,-0.1220703125,-0.1220703125
11:22:55.079, 1.5791015625000002,0.028710937500000002,9.7521484375,1.9379882812500002,-0.23447265625000002,9.4650390625,-0.48828125,0.18310546875,0.6103515625,0.244140625,-0.06103515625,0.0
11:22:55.190, 1.6269531250000002,0.028710937500000002,9.6181640625,1.9092773437500001,-0.12919921875,9.484179687500001,1.3427734375,-1.5869140625,-0.6103515625,0.0,0.18310546875,0.06103515625
11:22:55.300, 1.5886718750000002,0.23447265625000002,9.8,1.9858398437500002,-0.15791015625000002,9.675585937500001,0.9765625,-1.03759765625,-2.44140625,0.0,-0.1220703125,-0.1220703125
11:22:55.411, 1.7083007812500002,0.19619140625,9.579882812500001,1.88056640625,-0.08134765625000001,9.49375,1.89208984375,-1.708984375,-1.03759765625,0.0,0.0,0.06103515625
11:22:55.521, 1.6987304687500002,0.20576171875000002,9.56552734375,1.8997070312500002,-0.13876953125000002,9.603808593750001,0.79345703125,0.06103515625,-1.52587890625,0.1220703125,0.0,0.0
11:22:55.633, 1.6700195312500001,0.29189453125000003,9.75693359375,1.9379882812500002,-0.13398437500000002,9.603808593750001,0.9765625,-0.06103515625,-1.28173828125,-0.06103515625,-0.30517578125,0.0
11:22:55.743, 1.68916015625,0.33017578125,9.599023437500001,1.9140625000000002,-0.18662109375000002,9.651660156250001,0.06103515625,0.18310546875,-0.244140625,0.18310546875,0.06103515625,-0.1220703125
11:22:55.853, 1.7609375,0.23925781250000003,9.6373046875,1.9571289062500001,-0.153125,9.622949218750001,-0.54931640625,-0.3662109375,0.18310546875,0.0,0.0,0.0
11:22:55.963, 1.7178710937500001,0.2583984375,9.59423828125,1.9236328125000002,-0.1435546875,9.66123046875,-0.06103515625,0.48828125,0.3662109375,0.0,0.0,0.0
11:22:56.074, 1.59345703125,0.27275390625,9.68037109375,1.9332031250000001,-0.13398437500000002,9.61337890625,0.1220703125,0.0,-0.48828125,0.0,0.18310546875,0.0
11:22:56.178, 1.7322265625000002,0.33017578125,9.68037109375,1.9044921875,-0.14833984375,9.58466796875,0.79345703125,-1.15966796875,-1.03759765625,0.0,0.0,0.0
11:22:56.288, 1.78486328125,0.3349609375,9.651660156250001,1.9332031250000001,-0.16748046875,9.54638671875,0.0,0.3662109375,1.0986328125,0.0,0.0,0.0
11:22:56.398, 1.6508789062500002,0.26796875000000003,9.646875000000001,1.9714843750000002,-0.13876953125000002,9.6373046875,-1.64794921875,1.03759765625,0.30517578125,0.0,0.0,0.0
11:22:56.509, 1.7226562500000002,0.26318359375,9.651660156250001,1.9810546875000001,-0.12919921875,9.666015625,-0.06103515625,-0.67138671875,1.0986328125,0.0,0.0,0.0
11:22:56.620, 1.68916015625,0.2201171875,9.675585937500001,1.9475585937500002,-0.21054687500000002,9.512890625,-1.3427734375,0.18310546875,0.732421875,0.0,0.0,0.0
11:22:56.745, 1.6556640625,0.19619140625,9.75693359375,1.92841796875,-0.13876953125000002,9.670800781250001,-1.3427734375,0.9765625,1.8310546875,0.0,0.0,0.0
11:22:56.855, 1.6173828125,0.13398437500000002,9.651660156250001,1.894921875,-0.30625,9.670800781250001,-0.67138671875,0.0,0.67138671875,0.30517578125,0.18310546875,0.18310546875
11:22:56.965, 1.6078125,0.1435546875,9.5607421875,1.96669921875,-0.095703125,9.670800781250001,0.8544921875,0.30517578125,0.30517578125,-0.18310546875,-0.06103515625,0.06103515625
11:22:57.075, 1.68916015625,0.09091796875000001,9.838281250000001,1.8135742187500001,-0.19619140625,9.675585937500001,-0.18310546875,0.06103515625,-0.54931640625,0.48828125,0.0,0.0
11:22:57.185, 1.59345703125,0.25361328125000004,9.54638671875,1.8853515625000001,-0.10527343750000001,9.555957031250001,4.21142578125,0.06103515625,-3.7841796875,-0.244140625,-0.1220703125,0.06103515625
11:22:57.296, 1.6843750000000002,0.36367187500000003,9.771289062500001,1.9571289062500001,-0.172265625,9.5607421875,5.37109375,-1.708984375,-6.103515625,-0.30517578125,0.1220703125,0.0
11:22:57.406, 1.8518554687500002,0.7177734375,9.651660156250001,1.9332031250000001,-0.21054687500000002,9.63251953125,1.52587890625,-1.64794921875,0.6103515625,0.0,0.1220703125,0.0
11:22:57.517, 1.6173828125,0.32060546875,9.48896484375,1.8087890625,-0.153125,9.589453125,-4.33349609375,2.01416015625,2.25830078125,0.30517578125,0.06103515625,-0.1220703125
11:22:57.627, 1.53603515625,0.31582031250000003,9.795214843750001,1.990625,-0.153125,9.61337890625,-0.91552734375,2.50244140625,0.30517578125,0.1220703125,-0.1220703125,0.0
11:22:57.738, 1.665234375,0.23925781250000003,9.4171875,1.8662109375000002,-0.1435546875,9.503320312500001,-0.54931640625,-2.38037109375,-0.48828125,0.0,0.1220703125,0.0
11:22:57.848, 1.7944335937500002,0.35888671875,9.646875000000001,1.92841796875,-0.2009765625,9.6181640625,0.67138671875,-0.67138671875,-2.8076171875,-0.244140625,-0.18310546875,0.0
11:22:57.958, 1.8662109375000002,0.5311523437500001,9.838281250000001,1.894921875,-0.24404296875,9.651660156250001,1.3427734375,-0.1220703125,1.15966796875,-0.06103515625,0.0,0.0
11:22:58.069, 1.6078125,0.28232421875,9.412402343750001,1.8997070312500002,-0.1435546875,9.508105468750001,-4.7607421875,1.708984375,1.40380859375,0.18310546875,0.0,0.0
11:22:58.173, 1.5886718750000002,0.21533203125000003,9.780859375,1.96669921875,-0.11005859375,9.7330078125,-3.2958984375,3.41796875,2.13623046875,0.1220703125,-0.1220703125,0.0
11:22:58.282, 1.63173828125,0.2009765625,9.551171875000001,1.92841796875,-0.18183593750000002,9.56552734375,0.79345703125,-3.173828125,-1.03759765625,0.0,0.06103515625,0.0
11:22:58.392, 1.7609375,0.27275390625,9.51767578125,1.894921875,-0.22968750000000002,9.66123046875,-0.48828125,-0.06103515625,-1.46484375,0.244140625,0.0,-0.06103515625
11:22:58.503, 1.6748046875000002,0.21054687500000002,9.718652343750001,1.9140625000000002,-0.17705078125,9.603808593750001,0.3662109375,1.28173828125,0.91552734375,-0.06103515625,-0.06103515625,0.0
11:22:58.613, 1.5743164062500001,0.0765625,9.75693359375,2.03369140625,-0.18662109375000002,9.58466796875,0.42724609375,-0.54931640625,-1.46484375,0.1220703125,0.0,-0.18310546875
11:22:58.725, 1.7322265625000002,0.31103515625,9.479394531250001,1.9140625000000002,-0.11005859375,9.5703125,3.96728515625,-2.13623046875,-3.11279296875,0.0,-0.06103515625,0.0
11:22:58.835, 1.6987304687500002,0.401953125,9.68994140625,1.8518554687500002,-0.21054687500000002,9.599023437500001,0.79345703125,0.18310546875,-2.01416015625,-0.06103515625,0.1220703125,0.0
11:22:58.946, 1.6125976562500002,0.45458984375000006,9.6373046875,2.0049804687500004,-0.11005859375,9.49375,-1.220703125,0.9765625,2.3193359375,0.18310546875,0.0,0.0
11:22:59.057, 1.9044921875,0.18662109375000002,9.7138671875,1.9332031250000001,-0.16269531250000002,9.72822265625,-0.54931640625,-1.40380859375,-0.54931640625,0.0,0.0,0.0
11:22:59.167, 1.7561523437500002,0.5120117187500001,9.512890625,1.8518554687500002,-0.19140625,9.5416015625,1.77001953125,0.79345703125,0.3662109375,0.0,0.0,0.0
11:22:59.278, 1.63173828125,0.41152343750000003,9.575097656250001,1.9332031250000001,-0.20576171875000002,9.622949218750001,-3.72314453125,3.7841796875,1.708984375,0.0,0.0,0.0
11:22:59.388, 1.6078125,0.1435546875,9.61337890625,1.9332031250000001,-0.11484375000000001,9.503320312500001,-1.64794921875,0.91552734375,4.08935546875,0.0,0.0,0.0
11:22:59.499, 1.59345703125,0.09091796875000001,9.5416015625,1.9475585937500002,-0.153125,9.589453125,-1.3427734375,2.38037109375,0.3662109375,0.0,0.0,0.0
11:22:59.610, 1.5551757812500002,0.20576171875000002,9.814355468750001,1.9379882812500002,-0.19619140625,9.694726562500001,0.48828125,1.8310546875,0.3662109375,0.0,0.0,0.0
11:22:59.721, 1.4451171875000002,0.10048828125,9.68994140625,1.92841796875,-0.18662109375000002,9.484179687500001,-0.9765625,2.50244140625,1.28173828125,0.0,0.0,0.0
11:22:59.831, 1.4929687500000002,0.1244140625,9.771289062500001,1.9044921875,-0.153125,9.532031250000001,2.01416015625,-0.67138671875,-0.8544921875,0.0,0.0,0.0
11:22:59.942, 1.4307617187500001,0.11962890625000001,9.723437500000001,1.96669921875,-0.16269531250000002,9.7521484375,0.244140625,0.8544921875,-1.3427734375,0.0,0.0,0.0
11:23:00.052, 1.44033203125,0.095703125,9.766503906250001,1.990625,-0.1435546875,9.575097656250001,4.0283203125,-2.9296875,-2.44140625,0.0,0.0,0.0
11:23:00.155, 1.5503906250000001,0.32539062500000004,9.6373046875,1.9379882812500002,-0.17705078125,9.646875000000001,4.8828125,-4.150390625,-5.126953125,0.0,0.0,0.0
11:23:00.266, 1.6078125,0.52158203125,9.6373046875,1.9571289062500001,-0.19619140625,9.666015625,1.40380859375,-2.25830078125,-3.84521484375,0.0,0.0,0.0
11:23:00.376, 1.6173828125,0.50244140625,9.63251953125,1.92841796875,-0.20576171875000002,9.59423828125,0.8544921875,-2.50244140625,-0.06103515625,0.0,0.0,0.0
11:23:00.487, 1.7705078125000002,0.20576171875000002,9.30712890625,0.248828125,-0.36845703125,6.833203125000001,-2.01416015625,-0.91552734375,0.0,0.91552734375,7.50732421875,1.64794921875
11:23:00.597, 1.7226562500000002,0.401953125,9.7330078125,2.11025390625,-0.36367187500000003,10.40771484375,2.13623046875,0.0,-4.33349609375,-0.244140625,-0.18310546875,0.3662109375
11:23:00.708, 1.7657226562500001,0.8134765625000001,9.551171875000001,2.0241210937500003,-0.22490234375,10.010546875000001,3.72314453125,-1.64794921875,-0.06103515625,0.30517578125,0.3662109375,0.0
11:23:00.834, 1.7083007812500002,0.47373046875,9.599023437500001,1.9858398437500002,-0.153125,9.651660156250001,-6.7138671875,2.3193359375,3.47900390625,0.30517578125,0.0,0.0
11:23:00.944, 1.6125976562500002,0.11484375000000001,9.575097656250001,1.9379882812500002,-0.10048828125,9.68515625,-0.6103515625,-0.06103515625,2.5634765625,-0.1220703125,0.1220703125,0.06103515625
11:23:01.054, 1.77529296875,0.3828125,9.670800781250001,1.9044921875,-0.248828125,9.603808593750001,1.89208984375,-1.77001953125,-3.90625,-0.30517578125,0.1220703125,-0.06103515625
11:23:01.164, 1.7322265625000002,0.516796875,9.53681640625,1.87099609375,-0.26318359375,9.407617187500001,-1.28173828125,0.8544921875,0.9765625,-0.06103515625,0.18310546875,0.0
11:23:01.275, 1.6700195312500001,0.13398437500000002,9.68515625,1.8853515625000001,-0.12919921875,9.54638671875,-4.0283203125,2.01416015625,3.7841796875,-0.06103515625,0.0,0.0
11:23:01.385, 1.6508789062500002,0.21533203125000003,9.670800781250001,1.9379882812500002,-0.13398437500000002,9.551171875000001,2.9296875,-1.28173828125,-1.953125,-0.1220703125,0.0,0.0
11:23:01.495, 1.77529296875,0.47373046875,9.68994140625,1.92841796875,-0.2583984375,9.6373046875,2.44140625,-1.77001953125,-3.0517578125,0.0,0.0,0.1220703125
11:23:01.605, 1.7083007812500002,0.36845703125,9.555957031250001,1.8614257812500001,-0.23447265625000002,9.589453125,0.67138671875,0.732421875,0.67138671875,0.06103515625,-0.1220703125,-0.06103515625
11:23:01.715, 1.59345703125,0.23447265625000002,9.704296875,2.0958984375000003,-0.16748046875,9.503320312500001,-0.244140625,3.2958984375,0.42724609375,0.0,0.0,0.0
11:23:01.826, 2.13896484375,0.33974609375000003,9.44111328125,1.82314453125,-0.15791015625000002,9.704296875,6.16455078125,-5.18798828125,-6.40869140625,0.0,0.0,0.0
11:23:01.936, 1.9714843750000002,0.5837890625000001,9.59423828125,1.8518554687500002,-0.15791015625000002,9.56552734375,6.53076171875,1.46484375,-5.0048828125,0.0,0.0,0.0
11:23:02.047, 1.50732421875,0.68427734375,9.933984375000001,1.9571289062500001,-0.22490234375,9.579882812500001,-1.3427734375,8.056640625,0.3662109375,0.0,0.0,0.0
11:23:02.166, 1.5551757812500002,0.46894531250000004,9.508105468750001,2.0289062500000004,-0.11005859375,9.61337890625,0.1220703125,-2.13623046875,2.01416015625,0.0,0.0,0.0
11:23:02.276, 1.5408203125000002,0.47373046875,9.555957031250001,1.8470703125,-0.17705078125,9.5607421875,0.48828125,-0.06103515625,-2.5634765625,0.0,0.0,0.0
11:23:02.386, 1.5743164062500001,0.8134765625000001,9.77607421875,1.97626953125,-0.24404296875,9.66123046875,0.91552734375,0.732421875,-0.42724609375,0.0,0.0,0.0
11:23:02.496, 1.5168945312500002,0.47851562500000006,9.64208984375,2.0193359375,-0.17705078125,9.575097656250001,-4.8828125,1.03759765625,3.84521484375,0.0,0.0,0.0
11:23:02.606, 1.56953125,0.30146484375000004,9.63251953125,1.9236328125000002,-0.172265625,9.64208984375,-0.06103515625,-2.25830078125,2.25830078125,0.0,0.0,0.0
11:23:02.716, 1.5599609375,0.5598632812500001,9.699511718750001,1.894921875,-0.13876953125000002,9.646875000000001,-1.64794921875,2.50244140625,-1.15966796875,0.0,0.0,0.0
11:23:02.826, 1.512109375,0.47851562500000006,9.675585937500001,1.9475585937500002,-0.22968750000000002,9.575097656250001,-1.0986328125,-0.30517578125,2.38037109375,0.0,0.0,0.0
11:23:02.937, 1.59345703125,0.26318359375,9.670800781250001,1.9236328125000002,-0.15791015625000002,9.579882812500001,-2.197265625,-0.8544921875,2.74658203125,0.0,0.0,0.0
11:23:03.047, 1.56953125,0.25361328125000004,9.53681640625,1.91884765625,-0.18662109375000002,9.59423828125,-0.30517578125,0.9765625,-0.30517578125,0.0,0.0,0.0
11:23:03.158, 1.4786132812500001,0.41152343750000003,9.66123046875,1.95234375,-0.2201171875,9.60859375,1.64794921875,0.18310546875,-1.52587890625,0.0,0.0,0.0
11:23:03.269, 1.5886718750000002,0.41630859375,9.627734375000001,1.96669921875,-0.2009765625,9.58466796875,-0.06103515625,-1.40380859375,0.0,0.0,0.0,0.0
11:23:03.378, 1.5408203125000002,0.31103515625,9.622949218750001,1.92841796875,-0.18662109375000002,9.58466796875,0.18310546875,0.18310546875,0.42724609375,0.0,0.0,0.0
11:23:03.489, 1.5791015625000002,0.39716796875000004,9.72822265625,1.9714843750000002,-0.18183593750000002,9.60859375,0.91552734375,-1.3427734375,-1.708984375,0.0,0.0,0.0
11:23:03.599, 1.6125976562500002,0.5359375000000001,9.599023437500001,1.92841796875,-0.21054687500000002,9.555957031250001,1.3427734375,-1.8310546875,-2.01416015625,0.0,0.0,0.0
11:23:03.709, 1.6365234375000002,0.49765625,9.6373046875,1.9475585937500002,-0.172265625,9.603808593750001,-0.1220703125,-1.5869140625,0.0,0.0,0.0,0.0
11:23:03.820, 1.67958984375,0.43066406250000006,9.646875000000001,1.9427734375,-0.17705078125,9.6181640625,-0.91552734375,-0.91552734375,0.732421875,0.0,0.0,0.0
11:23:03.930, 1.6939453125000001,0.42109375000000004,9.723437500000001,1.9140625000000002,-0.15791015625000002,9.6373046875,0.48828125,-0.8544921875,-0.6103515625,0.0,0.0,0.0
11:23:04.040, 1.7561523437500002,0.5120117187500001,9.589453125,1.9427734375,-0.17705078125,9.627734375000001,0.3662109375,-0.244140625,-0.67138671875,0.0,0.0,0.0
11:23:04.159, 1.6460937500000001,0.45458984375000006,9.670800781250001,1.91884765625,-0.2201171875,9.555957031250001,-1.0986328125,1.0986328125,1.15966796875,0.0,0.0,0.0
11:23:04.269, 1.703515625,0.42587890625,9.61337890625,1.9714843750000002,-0.153125,9.589453125,-0.79345703125,0.8544921875,1.5869140625,0.0,0.0,0.0
11:23:04.379, 1.665234375,0.42109375000000004,9.646875000000001,1.9475585937500002,-0.19140625,9.603808593750001,-1.28173828125,1.28173828125,1.40380859375,0.0,0.0,0.0
11:23:04.489, 1.6173828125,0.36845703125,9.599023437500001,1.9619140625000002,-0.18662109375000002,9.58466796875,-0.9765625,2.44140625,2.25830078125,0.0,0.0,0.0
11:23:04.599, 1.5886718750000002,0.26796875000000003,9.7138671875,1.9092773437500001,-0.18183593750000002,9.599023437500001,-2.197265625,2.62451171875,2.44140625,0.0,0.0,0.0
11:23:04.709, 1.49775390625,0.18662109375000002,9.6564453125,1.9044921875,-0.16269531250000002,9.59423828125,-0.67138671875,2.3193359375,1.52587890625,0.0,0.0,0.0
11:23:04.820, 1.44990234375,0.2583984375,9.7330078125,1.96669921875,-0.18662109375000002,9.6181640625,0.9765625,1.15966796875,-0.1220703125,0.0,0.0,0.0
11:23:04.931, 1.4451171875000002,0.33974609375000003,9.675585937500001,1.9475585937500002,-0.18183593750000002,9.56552734375,0.67138671875,-0.48828125,-0.48828125,0.0,0.0,0.0
11:23:05.041, 1.473828125,0.30146484375000004,9.6373046875,1.9379882812500002,-0.16748046875,9.59423828125,0.54931640625,0.67138671875,-0.48828125,0.0,0.0,0.0
11:23:05.151, 1.4929687500000002,0.31582031250000003,9.771289062500001,1.9714843750000002,-0.1435546875,9.589453125,1.03759765625,-0.42724609375,-0.8544921875,0.0,0.0,0.0
11:23:05.262, 1.4690429687500002,0.38759765625000003,9.6564453125,1.92841796875,-0.18183593750000002,9.599023437500001,1.46484375,-1.220703125,-1.28173828125,0.0,0.0,0.0
11:23:05.372, 1.5216796875,0.36845703125,9.66123046875,1.9571289062500001,-0.19619140625,9.589453125,-0.06103515625,-0.9765625,-0.18310546875,0.0,0.0,0.0
11:23:05.482, 1.5599609375,0.42109375000000004,9.646875000000001,1.9475585937500002,-0.13876953125000002,9.60859375,-0.6103515625,-1.77001953125,-1.03759765625,0.0,0.0,0.0
11:23:05.592, 1.56953125,0.42109375000000004,9.646875000000001,1.9332031250000001,-0.2201171875,9.551171875000001,-0.54931640625,-1.3427734375,-0.30517578125,0.0,0.0,0.0
11:23:05.703, 1.56953125,0.39716796875000004,9.603808593750001,1.9714843750000002,-0.18183593750000002,9.603808593750001,-0.732421875,-0.732421875,0.244140625,0.0,0.0,0.0
11:23:05.814, 1.56953125,0.2009765625,9.723437500000001,1.9092773437500001,-0.15791015625000002,9.6181640625,0.06103515625,-2.8076171875,-0.3662109375,0.0,0.0,0.0
11:23:05.924, 1.7226562500000002,0.23925781250000003,9.54638671875,1.92841796875,-0.2201171875,9.59423828125,2.3193359375,-3.96728515625,-2.25830078125,0.0,0.0,-0.1220703125
11:23:06.034, 1.7609375,0.41630859375,9.670800781250001,1.9236328125000002,-0.17705078125,9.60859375,1.8310546875,-0.8544921875,-2.9296875,0.0,0.0,-0.06103515625
11:23:06.138, 1.6748046875000002,0.4498046875,9.56552734375,1.9044921875,-0.19140625,9.54638671875,1.0986328125,-0.6103515625,-1.5869140625,0.0,0.0,0.0
11:23:06.242, 1.77529296875,0.5120117187500001,9.651660156250001,2.0001953125000003,-0.12919921875,9.66123046875,0.732421875,-0.6103515625,-1.40380859375,0.0,-0.18310546875,0.0
11:23:06.352, 1.77529296875,0.50244140625,9.627734375000001,1.8853515625000001,-0.18183593750000002,9.603808593750001,0.67138671875,-0.244140625,-0.48828125,-0.1220703125,0.0,-0.1220703125
11:23:06.463, 1.7417968750000001,0.40673828125000006,9.68994140625,1.9858398437500002,-0.14833984375,9.646875000000001,-0.54931640625,-0.18310546875,0.8544921875,0.0,0.06103515625,0.0
11:23:06.573, 1.7417968750000001,0.39716796875000004,9.63251953125,1.8901367187500002,-0.2009765625,9.699511718750001,-0.244140625,0.1220703125,-0.54931640625,0.0,0.0,0.06103515625
11:23:06.684, 1.6508789062500002,0.5455078125,9.59423828125,1.7705078125000002,-0.23447265625000002,9.412402343750001,0.54931640625,0.732421875,-0.18310546875,0.1220703125,0.0,0.06103515625
11:23:06.795, 1.7705078125000002,0.49287109375000004,9.599023437500001,1.9140625000000002,-0.2009765625,9.512890625,-1.03759765625,-1.64794921875,1.03759765625,-0.06103515625,0.18310546875,0.0
11:23:06.905, 1.7657226562500001,0.34453125,9.694726562500001,1.9140625000000002,-0.19140625,9.575097656250001,-1.46484375,2.13623046875,2.44140625,0.0,-0.1220703125,-0.1220703125
11:23:07.015, 1.5791015625000002,0.32060546875,9.503320312500001,2.009765625,-0.153125,9.6373046875,-0.48828125,2.01416015625,0.67138671875,0.1220703125,0.0,0.0
11:23:07.125, 1.7465820312500002,0.50244140625,9.589453125,1.9140625000000002,-0.15791015625000002,9.53681640625,1.89208984375,-2.3193359375,-2.44140625,-0.18310546875,0.06103515625,0.0
11:23:07.236, 1.6987304687500002,0.5550781250000001,9.589453125,1.894921875,-0.20576171875000002,9.58466796875,-0.244140625,1.8310546875,1.03759765625,0.0,-0.1220703125,0.0
11:23:07.346, 1.6365234375000002,0.32060546875,9.7138671875,1.990625,-0.19140625,9.589453125,-2.5634765625,2.13623046875,2.5634765625,0.1220703125,0.0,-0.06103515625
11:23:07.456, 1.72744140625,0.3541015625,9.6181640625,1.9379882812500002,-0.16748046875,9.599023437500001,2.25830078125,2.0751953125,-1.953125,0.0,-0.244140625,0.0
11:23:07.566, 1.7178710937500001,0.6125,9.45068359375,1.91884765625,-0.20576171875000002,9.5703125,1.40380859375,6.04248046875,-1.953125,-0.244140625,-0.06103515625,0.0
11:23:07.677, 1.3254882812500002,0.5455078125,9.962695312500001,1.8997070312500002,-0.19619140625,9.579882812500001,0.3662109375,-3.72314453125,3.7841796875,0.18310546875,0.1220703125,0.0
11:23:07.787, 1.48818359375,0.42587890625,9.144433593750001,1.9475585937500002,-0.17705078125,9.622949218750001,1.15966796875,7.2021484375,2.74658203125,0.0,0.0,0.0
11:23:07.898, 1.30634765625,0.48330078125000003,10.077539062500001,1.91884765625,-0.18662109375000002,9.61337890625,1.46484375,1.77001953125,3.23486328125,0.0,0.0,0.0
11:23:08.008, 1.282421875,0.43066406250000006,9.766503906250001,1.95234375,-0.18662109375000002,9.59423828125,-1.03759765625,-1.40380859375,-1.77001953125,0.0,0.0,0.0
11:23:08.118, 1.41640625,0.3828125,9.7521484375,1.9619140625000002,-0.18183593750000002,9.579882812500001,1.40380859375,-2.197265625,1.77001953125,0.0,0.0,0.0
11:23:08.222, 1.4833984375,0.41630859375,9.58466796875,2.0001953125000003,-0.18662109375000002,9.603808593750001,0.18310546875,-1.28173828125,-0.8544921875,0.0,0.0,0.0
11:23:08.332, 1.41640625,0.47851562500000006,9.70908203125,1.9571289062500001,-0.16748046875,9.5703125,0.54931640625,0.48828125,-1.64794921875,0.0,0.0,0.0
11:23:08.443, 1.36376953125,0.49287109375000004,9.7330078125,1.9140625000000002,-0.17705078125,9.6181640625,0.0,0.06103515625,-1.40380859375,0.0,0.0,0.0
11:23:08.554, 1.4211914062500002,0.46416015625,9.646875000000001,1.9332031250000001,-0.18662109375000002,9.670800781250001,-0.67138671875,-1.52587890625,-0.30517578125,0.0,0.0,0.0
11:23:08.665, 1.4259765625,0.3923828125,9.68037109375,1.9236328125000002,-0.2009765625,9.575097656250001,-0.3662109375,-0.9765625,0.30517578125,0.0,0.0,0.0
11:23:08.775, 1.4929687500000002,0.41152343750000003,9.68515625,1.9332031250000001,-0.172265625,9.579882812500001,0.8544921875,-0.91552734375,-1.89208984375,0.0,0.0,0.0
11:23:08.887, 1.512109375,0.54072265625,9.5703125,1.9236328125000002,-0.20576171875000002,9.575097656250001,1.3427734375,-1.03759765625,-0.8544921875,0.0,0.0,0.0
11:23:09.014, 1.41640625,0.46894531250000004,9.670800781250001,1.9619140625000002,-0.2009765625,9.666015625,-1.40380859375,1.953125,-0.3662109375,0.0,0.0,0.0
11:23:09.124, 1.41162109375,0.49287109375000004,9.675585937500001,1.92841796875,-0.19619140625,9.5703125,-0.42724609375,-0.3662109375,-1.89208984375,0.0,0.0,0.0
11:23:09.235, 1.41640625,0.5455078125,9.68994140625,1.9236328125000002,-0.172265625,9.551171875000001,0.06103515625,-1.64794921875,1.52587890625,0.0,0.0,0.0
11:23:09.347, 1.5886718750000002,0.46894531250000004,9.6564453125,1.9714843750000002,-0.19140625,9.589453125,-0.732421875,-4.08935546875,0.9765625,0.0,0.0,0.0
11:23:09.459, 1.6365234375000002,0.33017578125,9.484179687500001,1.9619140625000002,-0.16269531250000002,9.6181640625,-1.708984375,-0.79345703125,0.54931640625,0.0,0.0,0.0
11:23:09.570, 1.5886718750000002,0.42109375000000004,9.699511718750001,1.9332031250000001,-0.18662109375000002,9.627734375000001,-0.42724609375,0.91552734375,-1.46484375,0.0,0.0,0.0
11:23:09.682, 1.5647460937500002,0.3923828125,9.59423828125,1.9140625000000002,-0.18662109375000002,9.5703125,0.79345703125,0.06103515625,-1.708984375,0.0,0.0,0.0
11:23:09.793, 1.5599609375,0.6220703125,9.49853515625,1.95234375,-0.16748046875,9.6181640625,2.44140625,-0.67138671875,3.35693359375,0.0,0.0,0.0
11:23:09.905, 1.58388671875,0.516796875,9.7138671875,1.95234375,-0.18662109375000002,9.59423828125,-0.244140625,0.0,0.79345703125,0.0,0.0,0.0
11:23:10.016, 1.64130859375,0.4498046875,9.723437500000001,1.9475585937500002,-0.21054687500000002,9.599023437500001,-0.79345703125,-1.708984375,0.6103515625,0.0,0.0,0.0
11:23:10.127, 1.6700195312500001,0.50244140625,9.49853515625,1.9332031250000001,-0.20576171875000002,9.532031250000001,0.79345703125,0.18310546875,0.0,0.0,0.0,0.0
11:23:10.231, 1.56953125,0.46894531250000004,9.77607421875,1.9475585937500002,-0.1435546875,9.63251953125,-0.91552734375,0.9765625,-0.18310546875,0.0,0.0,0.0
11:23:10.342, 1.6221679687500001,0.4880859375,9.666015625,1.92841796875,-0.21054687500000002,9.5703125,0.1220703125,-3.23486328125,-4.69970703125,0.0,0.0,0.0
11:23:10.454, 1.6365234375000002,0.57421875,9.59423828125,1.91884765625,-0.172265625,9.627734375000001,-0.06103515625,-0.6103515625,-2.685546875,0.0,0.0,0.0
11:23:10.565, 1.703515625,0.59814453125,9.646875000000001,1.9236328125000002,-0.17705078125,9.555957031250001,-1.28173828125,-0.48828125,-1.3427734375,0.0,0.0,0.0
11:23:10.676, 1.6939453125000001,0.6507812500000001,9.58466796875,1.96669921875,-0.19619140625,9.6373046875,0.9765625,-1.03759765625,1.89208984375,0.0,0.0,0.0
11:23:10.787, 1.703515625,0.37802734375,9.575097656250001,1.92841796875,-0.19619140625,9.58466796875,-1.40380859375,-0.1220703125,1.89208984375,0.0,0.0,0.0
11:23:10.899, 1.6125976562500002,0.5072265625000001,9.72822265625,1.9379882812500002,-0.18662109375000002,9.589453125,-0.8544921875,-0.732421875,-0.54931640625,0.0,0.0,0.0
11:23:11.010, 1.72744140625,0.40673828125000006,9.59423828125,1.8901367187500002,-0.18183593750000002,9.56552734375,0.06103515625,-2.50244140625,0.30517578125,0.0,0.0,0.0
11:23:11.120, 1.7178710937500001,0.41152343750000003,9.6373046875,1.9475585937500002,-0.16748046875,9.589453125,0.3662109375,0.79345703125,-1.52587890625,0.0,0.0,0.0
11:23:11.232, 1.7465820312500002,0.56943359375,9.63251953125,1.9332031250000001,-0.19619140625,9.61337890625,0.42724609375,-1.15966796875,-0.67138671875,0.0,0.0,0.0
11:23:11.343, 1.7561523437500002,0.37802734375,9.64208984375,1.9140625000000002,-0.19619140625,9.599023437500001,-0.9765625,0.48828125,0.91552734375,0.0,0.0,0.0
11:23:11.455, 1.7609375,0.3923828125,9.60859375,1.9427734375,-0.16748046875,9.622949218750001,0.244140625,-0.3662109375,-1.77001953125,0.0,0.0,0.0
11:23:11.566, 1.7226562500000002,0.52158203125,9.599023437500001,1.9332031250000001,-0.19140625,9.579882812500001,1.0986328125,0.0,0.18310546875,0.0,0.0,0.0
11:23:11.677, 1.703515625,0.5598632812500001,9.68994140625,1.92841796875,-0.18662109375000002,9.579882812500001,1.46484375,0.91552734375,2.197265625,0.0,0.0,0.0
11:23:11.788, 1.7083007812500002,0.34453125,9.527246093750001,2.0049804687500004,-0.18662109375000002,9.60859375,-1.8310546875,0.67138671875,0.0,0.0,0.0,0.0
11:23:11.898, 1.77529296875,0.5311523437500001,9.651660156250001,1.9236328125000002,-0.19140625,9.589453125,1.28173828125,-1.15966796875,0.42724609375,0.0,0.0,0.0
11:23:12.010, 1.8279296875000002,0.5550781250000001,9.503320312500001,2.0289062500000004,-0.21054687500000002,9.63251953125,-0.91552734375,1.3427734375,-0.3662109375,0.0,0.0,0.0
11:23:12.121, 1.7178710937500001,0.45937500000000003,9.68037109375,1.9092773437500001,-0.17705078125,9.699511718750001,-0.244140625,0.48828125,0.18310546875,0.0,0.0,0.0
11:23:12.225, 1.7130859375,0.5311523437500001,9.589453125,1.894921875,-0.18183593750000002,9.555957031250001,-0.06103515625,0.30517578125,-0.244140625,0.0,0.0,0.0
11:23:12.336, 1.6939453125000001,0.5263671875,9.63251953125,1.9714843750000002,-0.19619140625,9.59423828125,0.54931640625,0.3662109375,0.3662109375,0.0,0.0,0.0
11:23:12.448, 1.703515625,0.401953125,9.6181640625,1.9092773437500001,-0.153125,9.599023437500001,0.67138671875,-0.244140625,-0.18310546875,0.0,0.0,0.0
11:23:12.559, 1.6939453125000001,0.50244140625,9.603808593750001,1.92841796875,-0.153125,9.551171875000001,1.3427734375,0.54931640625,-1.5869140625,0.0,0.0,0.0
11:23:12.671, 1.6604492187500002,0.593359375,9.60859375,1.9044921875,-0.19140625,9.589453125,1.5869140625,0.0,-1.89208984375,0.0,0.0,0.0
11:23:12.783, 1.7226562500000002,0.6747070312500001,9.622949218750001,1.9332031250000001,-0.19140625,9.59423828125,0.30517578125,-0.42724609375,-0.1220703125,0.0,0.0,0.0
11:23:12.894, 1.6987304687500002,0.6316406250000001,9.579882812500001,1.97626953125,-0.2009765625,9.58466796875,-0.18310546875,0.0,0.48828125,0.0,0.0,0.0
11:23:13.005, 1.6604492187500002,0.6125,9.622949218750001,1.9379882812500002,-0.19140625,9.603808593750001,0.3662109375,-0.18310546875,-0.1220703125,0.0,0.0,0.0
11:23:13.117, 1.6508789062500002,0.6125,9.555957031250001,1.9427734375,-0.172265625,9.589453125,-0.6103515625,0.0,0.0,0.0,0.0,0.0
11:23:13.228, 1.67958984375,0.6125,9.627734375000001,1.9379882812500002,-0.21533203125000003,9.627734375000001,-2.01416015625,0.3662109375,0.6103515625,0.0,0.0,0.0
11:23:13.340, 1.67958984375,0.43544921875000003,9.575097656250001,1.9140625000000002,-0.18183593750000002,9.599023437500001,-2.44140625,1.3427734375,1.89208984375,0.0,0.0,0.0
11:23:13.450, 1.6508789062500002,0.401953125,9.670800781250001,1.91884765625,-0.172265625,9.603808593750001,-2.13623046875,1.28173828125,0.54931640625,0.0,0.0,0.0
11:23:13.562, 1.64130859375,0.41152343750000003,9.622949218750001,1.9044921875,-0.19140625,9.56552734375,-1.64794921875,0.79345703125,0.48828125,0.0,0.0,0.0
11:23:13.673, 1.6269531250000002,0.3541015625,9.61337890625,1.9619140625000002,-0.21533203125000003,9.551171875000001,-0.06103515625,0.0,1.220703125,0.0,0.0,0.0
11:23:13.785, 1.58388671875,0.30625,9.646875000000001,1.9571289062500001,-0.15791015625000002,9.622949218750001,-0.48828125,0.244140625,0.30517578125,0.0,0.0,0.0
11:23:13.897, 1.6078125,0.41152343750000003,9.747363281250001,1.9427734375,-0.18662109375000002,9.589453125,1.220703125,-0.42724609375,-1.15966796875,0.0,0.0,0.0
11:23:14.008, 1.6700195312500001,0.401953125,9.579882812500001,1.9427734375,-0.2009765625,9.589453125,0.6103515625,1.15966796875,-0.06103515625,0.0,0.0,0.0
11:23:14.119, 1.34462890625,0.35888671875,9.6564453125,1.9475585937500002,-0.18662109375000002,9.60859375,0.79345703125,7.4462890625,1.0986328125,0.0,0.0,0.0
11:23:14.224, 1.6556640625,0.22968750000000002,9.508105468750001,1.9140625000000002,-0.16748046875,9.579882812500001,2.86865234375,-6.89697265625,-1.64794921875,0.0,0.0,0.0
11:23:14.335, 1.7705078125000002,0.41630859375,9.5703125,1.9140625000000002,-0.21533203125000003,9.599023437500001,3.5400390625,-4.8828125,-4.33349609375,0.0,0.0,0.0
11:23:14.447, 1.7705078125000002,0.6747070312500001,9.599023437500001,1.990625,-0.172265625,9.5224609375,0.79345703125,0.1220703125,-0.67138671875,0.0,0.0,0.0
11:23:14.560, 1.703515625,0.58857421875,9.723437500000001,1.9427734375,-0.19619140625,9.6564453125,0.18310546875,0.244140625,-0.1220703125,0.0,0.0,0.0
11:23:14.671, 1.73701171875,0.57421875,9.532031250000001,1.92841796875,-0.19619140625,9.603808593750001,-0.06103515625,0.0,0.42724609375,0.0,0.0,0.0
11:23:14.783, 1.7657226562500001,0.5359375000000001,9.64208984375,1.96669921875,-0.22968750000000002,9.59423828125,-0.3662109375,0.3662109375,0.3662109375,0.0,0.0,0.0
11:23:14.895, 1.665234375,0.44501953125000004,9.666015625,1.91884765625,-0.15791015625000002,9.5703125,-0.54931640625,0.3662109375,0.1220703125,0.0,0.0,0.0
11:23:15.007, 1.7083007812500002,0.49765625,9.6373046875,1.9810546875000001,-0.19140625,9.575097656250001,0.6103515625,-0.54931640625,-1.03759765625,0.0,0.0,0.0
11:23:15.118, 1.7705078125000002,0.6125,9.54638671875,1.9427734375,-0.2009765625,9.589453125,-0.06103515625,0.3662109375,0.79345703125,0.0,0.0,0.0
11:23:15.228, 1.7130859375,0.46416015625,9.61337890625,1.9332031250000001,-0.16269531250000002,9.56552734375,-1.64794921875,0.91552734375,1.64794921875,0.0,0.0,0.0
11:23:15.339, 1.703515625,0.45458984375000006,9.6373046875,1.9714843750000002,-0.18183593750000002,9.54638671875,-0.67138671875,0.18310546875,1.52587890625,0.0,0.0,0.0
11:23:15.451, 1.7083007812500002,0.46894531250000004,9.59423828125,1.8901367187500002,-0.20576171875000002,9.5607421875,-0.30517578125,0.48828125,0.1220703125,0.0,0.0,0.0
11:23:15.563, 1.72744140625,0.5359375000000001,9.63251953125,1.96669921875,-0.20576171875000002,9.6181640625,-0.48828125,0.91552734375,1.03759765625,0.0,0.0,0.0
11:23:15.674, 1.63173828125,0.45937500000000003,9.5703125,1.92841796875,-0.19619140625,9.555957031250001,-1.28173828125,-0.54931640625,0.9765625,0.0,0.0,0.0
11:23:15.786, 1.68916015625,0.42587890625,9.670800781250001,1.9140625000000002,-0.21054687500000002,9.589453125,-0.06103515625,1.15966796875,0.18310546875,0.0,0.0,0.0
11:23:15.897, 1.6460937500000001,0.42109375000000004,9.666015625,1.92841796875,-0.18183593750000002,9.579882812500001,0.48828125,-0.30517578125,-0.48828125,0.0,0.0,0.0
11:23:16.009, 1.703515625,0.45937500000000003,9.64208984375,1.9714843750000002,-0.172265625,9.6181640625,0.30517578125,-0.1220703125,-0.48828125,0.0,0.0,0.0
11:23:16.120, 1.6604492187500002,0.46894531250000004,9.6564453125,1.96669921875,-0.2009765625,9.599023437500001,-0.06103515625,-0.06103515625,0.06103515625,0.0,0.0,0.0
11:23:16.224, 1.67958984375,0.5120117187500001,9.651660156250001,1.8997070312500002,-0.2009765625,9.599023437500001,0.06103515625,0.1220703125,-0.06103515625,0.0,0.0,0.0
11:23:16.336, 1.7130859375,0.45458984375000006,9.68515625,1.9427734375,-0.2009765625,9.60859375,-0.18310546875,0.244140625,0.244140625,0.0,0.0,0.0
11:23:16.447, 1.7130859375,0.47373046875,9.527246093750001,1.9379882812500002,-0.23925781250000003,9.59423828125,-0.8544921875,1.52587890625,0.3662109375,0.0,0.0,0.0
11:23:16.559, 1.59345703125,0.43066406250000006,9.771289062500001,1.9427734375,-0.21533203125000003,9.6373046875,-0.91552734375,1.03759765625,1.8310546875,0.0,0.0,0.0
11:23:16.671, 1.63173828125,0.31103515625,9.61337890625,1.9140625000000002,-0.18183593750000002,9.5703125,-0.244140625,0.30517578125,1.15966796875,0.0,0.0,0.0
11:23:16.782, 1.6460937500000001,0.43544921875000003,9.675585937500001,1.9571289062500001,-0.19619140625,9.64208984375,0.9765625,-1.3427734375,-1.64794921875,0.0,0.0,0.0
11:23:16.893, 1.6604492187500002,0.47851562500000006,9.666015625,1.9379882812500002,-0.15791015625000002,9.622949218750001,0.67138671875,-0.6103515625,0.06103515625,0.0,0.0,0.0
11:23:17.006, 1.6843750000000002,0.4880859375,9.60859375,2.11025390625,-0.248828125,9.589453125,0.48828125,-0.6103515625,-0.8544921875,-0.244140625,0.18310546875,0.1220703125
11:23:17.117, 1.6508789062500002,0.47851562500000006,9.68515625,1.96669921875,-0.2201171875,9.6564453125,-0.3662109375,0.9765625,-0.30517578125,0.06103515625,-0.06103515625,-0.06103515625
11:23:17.228, 1.64130859375,0.46416015625,9.646875000000001,1.9810546875000001,-0.18183593750000002,9.54638671875,-0.06103515625,-1.03759765625,-0.18310546875,-0.06103515625,-0.06103515625,0.0
11:23:17.340, 1.7178710937500001,0.42587890625,9.66123046875,1.9571289062500001,-0.172265625,9.5703125,0.30517578125,0.0,-0.67138671875,-0.06103515625,0.18310546875,-0.1220703125
11:23:17.452, 1.6365234375000002,0.5072265625000001,9.603808593750001,1.9427734375,-0.19619140625,9.5703125,0.06103515625,0.6103515625,-0.1220703125,0.0,-0.244140625,0.1220703125
11:23:17.563, 1.6700195312500001,0.42109375000000004,9.694726562500001,1.9379882812500002,-0.19140625,9.59423828125,0.1220703125,-0.8544921875,0.0,0.1220703125,-0.1220703125,0.0
11:23:17.674, 1.67958984375,0.5646484375,9.73779296875,1.95234375,-0.18183593750000002,9.59423828125,0.79345703125,-1.15966796875,-0.9765625,-0.06103515625,0.06103515625,0.0
11:23:17.786, 1.7083007812500002,0.47851562500000006,9.5703125,1.9427734375,-0.22968750000000002,9.579882812500001,-0.54931640625,-1.03759765625,-0.1220703125,0.0,0.1220703125,-0.06103515625
11:23:17.898, 1.73701171875,0.5359375000000001,9.675585937500001,1.92841796875,-0.19140625,9.622949218750001,0.3662109375,-0.30517578125,0.79345703125,0.1220703125,0.06103515625,0.1220703125
11:23:18.011, 1.6748046875000002,0.4498046875,9.5703125,1.9714843750000002,-0.20576171875000002,9.5607421875,-0.54931640625,-0.1220703125,0.1220703125,0.0,0.0,0.0
11:23:18.123, 1.7609375,0.5550781250000001,9.599023437500001,1.95234375,-0.21533203125000003,9.59423828125,0.1220703125,0.48828125,0.42724609375,0.0,0.0,0.0
11:23:18.226, 1.6748046875000002,0.516796875,9.603808593750001,1.9427734375,-0.20576171875000002,9.575097656250001,-1.40380859375,0.9765625,1.220703125,0.0,0.0,0.0
11:23:18.337, 1.7130859375,0.40673828125000006,9.675585937500001,1.9236328125000002,-0.2009765625,9.6181640625,-1.28173828125,0.91552734375,1.8310546875,0.0,0.0,0.0
11:23:18.448, 1.68916015625,0.38759765625000003,9.64208984375,1.91884765625,-0.172265625,9.627734375000001,-0.54931640625,0.8544921875,0.42724609375,0.0,0.0,0.0
11:23:18.558, 1.6269531250000002,0.37802734375,9.6564453125,1.9379882812500002,-0.2009765625,9.63251953125,0.732421875,1.52587890625,0.3662109375,0.0,0.0,0.0
11:23:18.669, 1.6365234375000002,0.35888671875,9.70908203125,1.9427734375,-0.16269531250000002,9.59423828125,0.42724609375,0.0,0.0,0.0,0.0,0.0
11:23:18.780, 1.6030273437500002,0.38759765625000003,9.622949218750001,1.9236328125000002,-0.17705078125,9.575097656250001,1.220703125,0.8544921875,-0.91552734375,0.0,0.0,0.0
11:23:18.890, 1.6221679687500001,0.5072265625000001,9.75693359375,1.9236328125000002,-0.18183593750000002,9.622949218750001,0.91552734375,0.6103515625,-0.67138671875,0.0,0.0,0.0
11:23:19.002, 1.5743164062500001,0.49765625,9.599023437500001,1.9619140625000002,-0.18662109375000002,9.622949218750001,0.42724609375,-0.42724609375,-0.48828125,0.0,0.0,0.0
11:23:19.112, 1.59345703125,0.49765625,9.6564453125,1.97626953125,-0.21533203125000003,9.58466796875,-0.18310546875,0.8544921875,0.0,0.0,0.0,0.0
11:23:19.224, 1.5551757812500002,0.45458984375000006,9.589453125,1.95234375,-0.172265625,9.575097656250001,-0.1220703125,0.3662109375,0.6103515625,0.0,0.0,0.0
11:23:19.333, 1.665234375,0.41152343750000003,9.666015625,1.96669921875,-0.19619140625,9.64208984375,-0.67138671875,2.38037109375,0.48828125,0.0,0.0,0.0
11:23:19.443, 1.39248046875,0.39716796875000004,9.862207031250001,1.92841796875,-0.18662109375000002,9.579882812500001,-0.1220703125,-0.8544921875,0.9765625,0.0,0.0,0.0
11:23:19.554, 1.5408203125000002,0.42587890625,9.747363281250001,1.91884765625,-0.16269531250000002,9.58466796875,0.48828125,0.1220703125,-1.220703125,0.0,0.0,0.0
11:23:19.665, 1.7083007812500002,0.5072265625000001,9.579882812500001,1.91884765625,-0.18662109375000002,9.575097656250001,1.03759765625,-2.74658203125,-1.15966796875,0.0,0.0,0.0
11:23:19.776, 1.6939453125000001,0.6507812500000001,9.646875000000001,1.9427734375,-0.20576171875000002,9.651660156250001,-0.54931640625,0.54931640625,0.6103515625,0.0,0.0,0.0
11:23:19.887, 1.7083007812500002,0.5359375000000001,9.6181640625,1.9475585937500002,-0.20576171875000002,9.622949218750001,-0.91552734375,0.9765625,2.62451171875,0.0,0.0,0.0
11:23:19.998, 1.6030273437500002,0.401953125,9.622949218750001,1.8997070312500002,-0.18183593750000002,9.599023437500001,-2.44140625,3.173828125,4.45556640625,0.0,0.0,0.0
11:23:20.108, 1.5216796875,0.248828125,9.771289062500001,1.95234375,-0.19619140625,9.53681640625,-2.44140625,1.8310546875,1.46484375,0.0,0.0,0.0
11:23:20.211, 1.4929687500000002,0.2201171875,9.675585937500001,1.9475585937500002,-0.2009765625,9.603808593750001,-1.220703125,1.15966796875,0.48828125,0.0,0.0,0.0
11:23:20.321, 1.4307617187500001,0.26318359375,9.718652343750001,1.9714843750000002,-0.19619140625,9.60859375,1.03759765625,-0.6103515625,-1.52587890625,0.0,0.0,0.0
11:23:20.431, 1.48818359375,0.37802734375,9.66123046875,1.9571289062500001,-0.18662109375000002,9.64208984375,1.64794921875,-1.953125,-2.13623046875,0.0,0.0,0.0
11:23:20.541, 1.5647460937500002,0.4498046875,9.646875000000001,1.9236328125000002,-0.20576171875000002,9.599023437500001,1.64794921875,-2.62451171875,-1.708984375,0.0,0.0,0.0
11:23:20.651, 1.6078125,0.46894531250000004,9.675585937500001,1.9332031250000001,-0.19140625,9.58466796875,0.9765625,-1.89208984375,-1.220703125,0.0,0.0,0.0
11:23:20.762, 1.6604492187500002,0.41630859375,9.551171875000001,1.9427734375,-0.19619140625,9.6373046875,0.8544921875,-1.8310546875,-0.6103515625,0.0,0.0,0.0
11:23:20.873, 1.7130859375,0.43544921875000003,9.54638671875,1.9714843750000002,-0.2009765625,9.53681640625,0.9765625,-1.03759765625,-1.77001953125,0.0,0.0,0.0
11:23:20.985, 1.7083007812500002,0.52158203125,9.651660156250001,1.9475585937500002,-0.21054687500000002,9.646875000000001,1.15966796875,-0.1220703125,-3.90625,0.0,0.0,0.0
11:23:21.095, 1.68916015625,0.61728515625,9.6564453125,1.92841796875,-0.2201171875,9.60859375,-0.1220703125,-1.220703125,-3.47900390625,0.0,0.0,0.0
11:23:21.207, 1.7417968750000001,0.52158203125,9.60859375,1.95234375,-0.18183593750000002,9.59423828125,-0.42724609375,0.3662109375,0.91552734375,0.0,0.0,0.0
11:23:21.317, 1.7178710937500001,0.5263671875,9.508105468750001,1.95234375,-0.16748046875,9.6181640625,-1.28173828125,1.0986328125,0.54931640625,0.0,0.0,0.0
11:23:21.427, 1.72744140625,0.44501953125000004,9.7138671875,1.9379882812500002,-0.2009765625,9.646875000000001,-1.0986328125,3.72314453125,-0.8544921875,0.0,0.0,0.0
11:23:21.538, 1.58388671875,0.41630859375,9.8,1.92841796875,-0.18183593750000002,9.5703125,-1.40380859375,1.8310546875,0.3662109375,0.0,0.0,0.0
11:23:21.641, 1.49775390625,0.21054687500000002,9.1875,1.9140625000000002,-0.19619140625,9.60859375,0.0,-0.42724609375,-2.685546875,0.0,0.0,0.0
11:23:21.752, 1.4546875000000001,0.49287109375000004,10.369433593750001,1.9571289062500001,-0.19619140625,9.599023437500001,-0.06103515625,-0.48828125,-4.57763671875,0.0,0.0,0.0
11:23:21.862, 1.6125976562500002,0.5455078125,10.16845703125,1.9379882812500002,-0.2009765625,9.59423828125,0.0,2.50244140625,-1.03759765625,0.0,0.0,0.0
11:23:21.972, 1.7465820312500002,0.31582031250000003,9.21142578125,1.92841796875,-0.18662109375000002,9.555957031250001,-0.48828125,-3.5400390625,-1.52587890625,0.0,0.0,0.0
11:23:22.082, 1.6508789062500002,0.42587890625,9.97705078125,1.95234375,-0.19140625,9.61337890625,-1.953125,3.41796875,-2.01416015625,0.0,0.0,0.0
11:23:22.186, 1.87099609375,0.46416015625,9.15400390625,1.9379882812500002,-0.19140625,9.61337890625,1.5869140625,-4.69970703125,-1.52587890625,0.0,0.0,0.0
11:23:22.297, 1.7178710937500001,0.52158203125,9.819140625000001,1.9427734375,-0.20576171875000002,9.64208984375,0.0,1.28173828125,-0.67138671875,0.0,0.0,0.0
11:23:22.409, 1.7083007812500002,0.46416015625,9.5607421875,1.9092773437500001,-0.19140625,9.6181640625,0.48828125,0.0,-0.244140625,0.0,0.0,0.0
11:23:22.519, 1.703515625,0.41630859375,9.666015625,1.9619140625000002,-0.19619140625,9.646875000000001,0.0,-0.42724609375,-1.46484375,0.0,0.0,0.0
11:23:22.645, 1.6939453125000001,0.440234375,9.599023437500001,1.9332031250000001,-0.16748046875,9.603808593750001,0.48828125,-0.1220703125,-2.50244140625,0.0,0.0,0.0
11:23:22.755, 1.6843750000000002,0.41152343750000003,9.60859375,1.9475585937500002,-0.20576171875000002,9.6181640625,0.244140625,-0.54931640625,-6.89697265625,0.0,0.0,0.0
11:23:22.866, 1.6987304687500002,0.3923828125,9.66123046875,1.9092773437500001,-0.21533203125000003,9.603808593750001,-0.48828125,-0.6103515625,-15.13671875,0.0,0.0,0.0
11:23:22.977, 1.7513671875,0.49287109375000004,9.527246093750001,1.95234375,-0.19140625,9.61337890625,-0.732421875,-0.30517578125,-19.47021484375,0.0,0.0,0.0
11:23:23.088, 1.72744140625,0.7464843750000001,9.599023437500001,1.9092773437500001,-0.2201171875,9.59423828125,3.11279296875,-0.1220703125,-15.68603515625,0.0,0.0,0.0
11:23:23.198, 1.6604492187500002,1.00966796875,9.555957031250001,1.9140625000000002,-0.19619140625,9.555957031250001,4.69970703125,0.0,-7.2021484375,0.0,0.0,0.0
11:23:23.308, 1.5791015625000002,1.03359375,9.699511718750001,1.9236328125000002,-0.18662109375000002,9.5607421875,0.67138671875,0.42724609375,-4.2724609375,0.0,0.0,0.0
11:23:23.418, 1.6125976562500002,0.68427734375,9.575097656250001,1.9236328125000002,-0.17705078125,9.5703125,-2.25830078125,-0.30517578125,-2.685546875,0.0,0.0,0.0
11:23:23.528, 1.6604492187500002,0.48330078125000003,9.575097656250001,1.9236328125000002,-0.2009765625,9.53681640625,-6.2255859375,-0.79345703125,-10.43701171875,0.0,0.0,0.0
11:23:23.639, 1.6939453125000001,0.69384765625,9.6564453125,1.9140625000000002,-0.17705078125,9.555957031250001,-3.35693359375,-0.91552734375,-14.0380859375,0.0,0.0,0.0
11:23:23.749, 1.6221679687500001,0.37324218750000004,9.54638671875,1.92841796875,-0.17705078125,9.56552734375,-1.0986328125,-1.953125,-15.7470703125,0.0,0.0,0.0
11:23:23.860, 1.67958984375,0.9905273437500001,9.61337890625,1.9427734375,-0.18662109375000002,9.56552734375,4.21142578125,0.0,-14.404296875,0.0,0.0,0.0
11:23:23.971, 1.7178710937500001,1.1484375,9.5607421875,1.9427734375,-0.20576171875000002,9.551171875000001,3.96728515625,0.48828125,-1.953125,0.0,0.0,0.0
11:23:24.082, 1.6748046875000002,1.11494140625,9.6564453125,1.9140625000000002,-0.2009765625,9.603808593750001,1.46484375,0.48828125,3.41796875,0.0,0.0,0.0
11:23:24.185, 1.6269531250000002,1.30634765625,9.59423828125,1.9332031250000001,-0.21533203125000003,9.58466796875,4.21142578125,1.0986328125,14.0380859375,0.0,0.0,0.0
11:23:24.296, 1.6700195312500001,1.1915039062500001,9.5607421875,1.9236328125000002,-0.18183593750000002,9.627734375000001,4.94384765625,0.42724609375,27.2216796875,0.0,0.0,0.0
11:23:24.406, 1.68916015625,0.8708984375000001,9.68037109375,1.9571289062500001,-0.21054687500000002,9.5703125,1.52587890625,2.197265625,24.35302734375,0.0,0.0,0.0
11:23:24.517, 1.68916015625,0.7273437500000001,9.575097656250001,1.9619140625000002,-0.19140625,9.59423828125,0.732421875,1.0986328125,22.705078125,0.0,0.0,0.0
11:23:24.627, 1.6939453125000001,0.5311523437500001,9.58466796875,1.91884765625,-0.21533203125000003,9.5703125,-3.0517578125,2.5634765625,10.55908203125,0.0,0.0,0.0
11:23:24.737, 1.63173828125,0.5646484375,9.56552734375,1.9044921875,-0.15791015625000002,9.599023437500001,-4.21142578125,4.94384765625,2.38037109375,0.0,0.0,0.0
11:23:24.840, 1.53603515625,0.68427734375,9.603808593750001,1.96669921875,-0.2201171875,9.622949218750001,-0.91552734375,5.4931640625,2.01416015625,0.0,0.0,0.0
11:23:24.951, 1.3350585937500001,0.6316406250000001,9.59423828125,1.9379882812500002,-0.22490234375,9.56552734375,-1.3427734375,4.21142578125,2.86865234375,0.0,0.0,0.0
11:23:25.061, 1.31591796875,0.55029296875,9.819140625000001,1.95234375,-0.2009765625,9.59423828125,-1.5869140625,1.8310546875,1.8310546875,0.0,0.0,0.0
11:23:25.171, 1.35419921875,0.52158203125,9.7138671875,1.96669921875,-0.18183593750000002,9.622949218750001,-0.244140625,-3.11279296875,0.0,0.0,0.0,0.0
11:23:25.281, 1.4259765625,0.6077148437500001,9.63251953125,1.894921875,-0.18662109375000002,9.56552734375,0.732421875,-3.5400390625,-1.5869140625,0.0,0.0,0.0
11:23:25.392, 1.49775390625,0.6507812500000001,9.68515625,1.95234375,-0.22490234375,9.61337890625,-0.30517578125,-3.2958984375,-1.03759765625,0.0,0.0,0.0
11:23:25.503, 1.64130859375,0.6029296875000001,9.54638671875,1.9475585937500002,-0.21054687500000002,9.579882812500001,-0.30517578125,-3.84521484375,1.0986328125,0.0,0.0,0.0
11:23:25.613, 1.6748046875000002,0.55029296875,9.675585937500001,1.91884765625,-0.19619140625,9.603808593750001,0.54931640625,-2.8076171875,0.0,0.0,0.0,0.0
11:23:25.723, 1.8279296875000002,0.708203125,9.532031250000001,1.9092773437500001,-0.19140625,9.589453125,0.244140625,-1.3427734375,-0.54931640625,0.0,0.0,0.0
11:23:25.833, 1.7609375,0.6603515625,9.59423828125,1.8757812500000002,-0.18183593750000002,9.575097656250001,-0.1220703125,0.67138671875,1.03759765625,0.0,0.0,0.0
11:23:25.943, 1.665234375,0.59814453125,9.63251953125,1.96669921875,-0.20576171875000002,9.622949218750001,-1.28173828125,1.46484375,1.708984375,0.0,0.0,0.0
11:23:26.053, 1.64130859375,0.5837890625000001,9.646875000000001,1.92841796875,-0.2009765625,9.579882812500001,-1.03759765625,1.0986328125,2.25830078125,0.0,0.0,0.0
11:23:26.157, 1.6221679687500001,0.5598632812500001,9.6181640625,1.8997070312500002,-0.19140625,9.599023437500001,-1.220703125,0.79345703125,2.685546875,0.0,0.0,0.0
11:23:26.268, 1.5982421875000001,0.49765625,9.675585937500001,1.9571289062500001,-0.21533203125000003,9.5607421875,-1.46484375,1.953125,2.99072265625,0.0,0.0,0.0
11:23:26.379, 1.59345703125,0.41630859375,9.68994140625,1.9332031250000001,-0.2201171875,9.646875000000001,-0.48828125,-0.06103515625,0.9765625,0.0,0.0,0.0
11:23:26.489, 1.6173828125,0.47851562500000006,9.599023437500001,1.9571289062500001,-0.21533203125000003,9.603808593750001,0.0,0.244140625,0.0,0.0,0.0,0.0
11:23:26.599, 1.58388671875,0.5072265625000001,9.66123046875,1.9571289062500001,-0.22490234375,9.66123046875,-0.06103515625,0.91552734375,0.18310546875,0.0,0.0,0.0
11:23:26.709, 1.58388671875,0.47851562500000006,9.7138671875,1.9427734375,-0.19619140625,9.579882812500001,-0.67138671875,0.48828125,0.06103515625,0.0,0.0,0.0
11:23:26.820, 1.4929687500000002,0.48330078125000003,9.53681640625,1.95234375,-0.19619140625,9.59423828125,0.3662109375,1.46484375,0.79345703125,0.0,0.0,0.0
11:23:26.931, 1.5743164062500001,0.41630859375,9.599023437500001,1.9810546875000001,-0.18662109375000002,9.58466796875,-0.6103515625,0.9765625,0.48828125,0.0,0.0,0.0
11:23:27.041, 1.5982421875000001,0.44501953125000004,9.670800781250001,1.9332031250000001,-0.20576171875000002,9.622949218750001,-0.732421875,0.54931640625,-0.54931640625,0.0,0.0,0.0
11:23:27.151, 1.4929687500000002,0.43544921875000003,9.68515625,1.91884765625,-0.2009765625,9.56552734375,0.0,1.3427734375,0.1220703125,0.0,0.0,0.0
11:23:27.261, 1.4307617187500001,0.45458984375000006,9.68515625,1.9714843750000002,-0.18183593750000002,9.64208984375,0.3662109375,0.3662109375,0.244140625,0.0,0.0,0.0
11:23:27.372, 1.4833984375,0.45458984375000006,9.72822265625,1.9571289062500001,-0.23925781250000003,9.5703125,-0.06103515625,0.0,0.0,0.0,0.0,0.0
11:23:27.483, 1.512109375,0.42109375000000004,9.651660156250001,1.8997070312500002,-0.19140625,9.58466796875,-0.48828125,0.79345703125,0.18310546875,0.0,0.0,0.0
11:23:27.593, 1.512109375,0.39716796875000004,9.70908203125,1.9619140625000002,-0.21533203125000003,9.599023437500001,-0.06103515625,0.1220703125,0.244140625,0.0,0.0,0.0
11:23:27.704, 1.4690429687500002,0.4498046875,9.68037109375,1.9236328125000002,-0.2009765625,9.622949218750001,-0.1220703125,0.3662109375,-0.3662109375,0.0,0.0,0.0
11:23:27.814, 1.4451171875000002,0.42587890625,9.670800781250001,1.9332031250000001,-0.2009765625,9.622949218750001,0.0,0.18310546875,0.0,0.0,0.0,0.0
11:23:27.925, 1.44990234375,0.41630859375,9.68037109375,1.9475585937500002,-0.19140625,9.627734375000001,0.3662109375,-0.8544921875,-0.18310546875,0.0,0.0,0.0
11:23:28.035, 1.48818359375,0.4498046875,9.68037109375,1.9332031250000001,-0.19140625,9.61337890625,0.0,-0.06103515625,-0.67138671875,0.0,0.0,0.0
11:23:28.155, 1.53125,0.47373046875,9.599023437500001,1.9427734375,-0.18662109375000002,9.56552734375,0.1220703125,0.3662109375,0.1220703125,0.0,0.0,0.0
11:23:28.265, 1.44990234375,0.5311523437500001,9.8765625,1.8997070312500002,-0.19619140625,9.503320312500001,-0.91552734375,4.150390625,1.5869140625,0.0,0.0,0.0
11:23:28.376, 1.512109375,0.287109375,9.321484375,1.92841796875,-0.19619140625,9.54638671875,-0.42724609375,5.18798828125,0.8544921875,0.0,0.0,0.0
11:23:28.487, 1.30634765625,0.3828125,10.1923828125,1.9379882812500002,-0.19140625,9.5416015625,-2.01416015625,3.5400390625,-1.5869140625,0.0,0.0,0.0
11:23:28.598, 1.4068359375000001,0.47851562500000006,8.938671875,1.95234375,-0.19140625,9.58466796875,0.30517578125,8.72802734375,2.8076171875,0.0,0.0,0.0
11:23:28.708, 0.9139648437500001,0.42587890625,10.35986328125,1.97626953125,-0.22968750000000002,9.603808593750001,-0.3662109375,10.55908203125,3.0517578125,0.0,0.0,0.0
11:23:28.819, 1.0479492187500001,0.2966796875,9.244921875000001,1.95234375,-0.19140625,9.61337890625,-1.3427734375,-5.9814453125,0.06103515625,0.0,0.0,0.0
11:23:28.928, 0.9809570312500001,0.36367187500000003,9.862207031250001,1.9140625000000002,-0.20576171875000002,9.60859375,0.244140625,11.8408203125,-0.91552734375,0.0,0.0,0.0
11:23:29.038, 0.8326171875,0.34931640625000004,9.890917968750001,1.9619140625000002,-0.2009765625,9.579882812500001,-0.1220703125,-4.45556640625,1.708984375,0.0,0.0,0.0
11:23:29.149, 0.74169921875,0.3541015625,10.106250000000001,1.9427734375,-0.18183593750000002,9.589453125,0.244140625,-0.3662109375,-1.40380859375,0.0,0.0,0.0
11:23:29.259, 0.8948242187500001,0.36845703125,9.39326171875,1.9236328125000002,-0.22968750000000002,9.575097656250001,0.79345703125,-2.0751953125,-0.18310546875,0.0,0.0,0.0
11:23:29.370, 0.899609375,0.41152343750000003,9.9244140625,1.91884765625,-0.21533203125000003,9.599023437500001,0.18310546875,0.3662109375,-0.42724609375,0.0,0.0,0.0
11:23:29.480, 0.92353515625,0.41152343750000003,9.675585937500001,1.9619140625000002,-0.172265625,9.60859375,0.06103515625,1.89208984375,0.42724609375,0.0,0.0,0.0
11:23:29.591, 0.87568359375,0.4498046875,9.771289062500001,1.95234375,-0.18183593750000002,9.622949218750001,-0.30517578125,-0.18310546875,-0.06103515625,0.42724609375,-0.3662109375,0.0
11:23:29.703, 0.8374023437500001,0.40673828125000006,9.771289062500001,1.91884765625,-0.18183593750000002,9.60859375,-1.64794921875,0.8544921875,1.46484375,-0.1220703125,-0.1220703125,0.0
11:23:29.812, 0.8230468750000001,0.2966796875,9.838281250000001,1.9092773437500001,-0.19140625,9.603808593750001,-1.15966796875,-0.244140625,2.01416015625,0.0,0.0,0.0
11:23:29.923, 0.8948242187500001,0.30625,9.80478515625,1.95234375,-0.21533203125000003,9.646875000000001,0.1220703125,-1.3427734375,-0.1220703125,0.06103515625,0.1220703125,0.0
11:23:30.034, 0.9091796875000001,0.29189453125000003,9.68515625,1.96669921875,-0.23447265625000002,9.58466796875,-0.18310546875,-1.953125,-0.79345703125,0.06103515625,0.06103515625,-0.06103515625
11:23:30.145, 0.95224609375,0.32060546875,9.6564453125,1.9236328125000002,-0.2009765625,9.58466796875,0.30517578125,0.9765625,0.42724609375,0.0,0.0,0.06103515625
11:23:30.247, 0.9378906250000001,0.3349609375,9.8287109375,1.97626953125,-0.0765625,9.73779296875,0.1220703125,0.79345703125,-0.06103515625,-0.732421875,-0.06103515625,0.0
11:23:30.357, 0.95224609375,0.37324218750000004,9.6564453125,1.9140625000000002,-0.18183593750000002,9.694726562500001,1.15966796875,-0.3662109375,-0.8544921875,0.0,0.0,0.0
11:23:30.468, 0.9331054687500001,0.41630859375,9.76171875,1.9140625000000002,-0.248828125,9.58466796875,0.0,0.9765625,-0.9765625,0.0,-0.06103515625,-0.06103515625
11:23:30.578, 0.8517578125,0.33974609375000003,9.82392578125,1.87099609375,-0.2201171875,9.603808593750001,-1.46484375,0.8544921875,2.50244140625,0.06103515625,0.0,-0.1220703125
11:23:30.689, 0.82783203125,0.19619140625,9.699511718750001,1.6939453125000001,0.0095703125,9.627734375000001,-0.06103515625,0.1220703125,0.1220703125,-0.06103515625,0.6103515625,0.06103515625
11:23:30.800, 0.8182617187500001,0.39716796875000004,9.73779296875,1.44990234375,-0.4880859375,9.0822265625,1.64794921875,-0.18310546875,-2.38037109375,-0.79345703125,-1.64794921875,0.6103515625
11:23:30.911, 0.9570312500000001,0.440234375,9.78564453125,1.9092773437500001,-0.23447265625000002,9.58466796875,-1.28173828125,-2.01416015625,-0.06103515625,0.06103515625,0.30517578125,-0.1220703125
11:23:31.021, 0.899609375,0.30146484375000004,9.579882812500001,1.9714843750000002,-0.16269531250000002,9.56552734375,-1.64794921875,0.244140625,2.44140625,0.18310546875,-0.244140625,-0.1220703125
11:23:31.132, 0.9618164062500001,0.16748046875,9.938769531250001,1.990625,-0.153125,9.64208984375,1.0986328125,-1.40380859375,0.67138671875,-0.1220703125,-0.06103515625,0.0
11:23:31.243, 1.0048828125,0.3923828125,9.622949218750001,1.9427734375,-0.24404296875,9.603808593750001,2.25830078125,-2.0751953125,-3.11279296875,-0.06103515625,0.1220703125,0.0
11:23:31.353, 0.976171875,0.54072265625,9.76171875,1.91884765625,-0.22968750000000002,9.5224609375,-0.6103515625,-0.54931640625,-0.06103515625,0.244140625,0.0,0.0
11:23:31.463, 1.0000976562500001,0.34931640625000004,9.766503906250001,1.92841796875,-0.172265625,9.6373046875,-1.953125,-4.150390625,4.21142578125,-0.06103515625,0.0,0.0
11:23:31.573, 1.0383789062500002,0.16269531250000002,9.694726562500001,1.856640625,-0.15791015625000002,9.56552734375,-2.44140625,-3.72314453125,-0.6103515625,0.0,0.0,0.0
11:23:31.684, 1.2058593750000002,0.27275390625,9.723437500000001,1.9427734375,-0.19619140625,9.599023437500001,-1.220703125,-5.37109375,-2.74658203125,-0.1220703125,0.0,0.06103515625
11:23:31.795, 1.2776367187500002,0.26796875000000003,9.78564453125,1.92841796875,-0.19619140625,9.5703125,-1.03759765625,-4.57763671875,-1.77001953125,0.0,0.06103515625,0.0
11:23:31.905, 1.49775390625,0.0478515625,9.5703125,1.91884765625,-0.16748046875,9.579882812500001,0.42724609375,-6.4697265625,0.3662109375,0.06103515625,-0.1220703125,0.0
11:23:32.016, 1.5791015625000002,0.26796875000000003,9.75693359375,1.97626953125,-0.15791015625000002,9.622949218750001,1.953125,-4.7607421875,-1.953125,0.0,0.0,0.0
11:23:32.127, 1.6460937500000001,0.38759765625000003,9.5607421875,1.92841796875,-0.21054687500000002,9.58466796875,0.6103515625,-4.0283203125,-2.13623046875,0.0,0.0,0.0
11:23:32.230, 1.703515625,0.3828125,9.5416015625,1.92841796875,-0.18183593750000002,9.579882812500001,-1.89208984375,0.9765625,1.28173828125,0.0,0.0,0.0
11:23:32.341, 1.665234375,0.18662109375000002,9.7138671875,1.9092773437500001,-0.18183593750000002,9.603808593750001,-1.89208984375,1.52587890625,3.173828125,0.0,0.0,0.0
11:23:32.452, 1.5599609375,0.16269531250000002,9.575097656250001,1.95234375,-0.21054687500000002,9.599023437500001,-1.40380859375,2.62451171875,1.3427734375,0.0,0.0,0.0
11:23:32.563, 1.53125,0.18662109375000002,9.666015625,1.95234375,-0.21054687500000002,9.64208984375,-0.91552734375,2.62451171875,1.15966796875,0.0,0.0,0.0
11:23:32.673, 1.4307617187500001,0.13398437500000002,9.68515625,1.9379882812500002,-0.2009765625,9.575097656250001,-1.3427734375,3.35693359375,2.01416015625,0.0,0.0,0.0
11:23:32.784, 1.39248046875,0.052636718750000006,9.670800781250001,1.95234375,-0.19619140625,9.603808593750001,1.0986328125,1.46484375,0.54931640625,0.0,0.0,0.0
11:23:32.896, 1.4451171875000002,0.1435546875,9.666015625,1.9140625000000002,-0.19619140625,9.575097656250001,2.0751953125,2.5634765625,-1.0986328125,0.0,0.0,0.0
11:23:33.007, 1.3254882812500002,0.23447265625000002,9.718652343750001,1.9475585937500002,-0.20576171875000002,9.622949218750001,0.79345703125,3.662109375,-1.0986328125,0.0,0.0,0.0
11:23:33.118, 1.2872070312500001,0.23925781250000003,9.72822265625,1.92841796875,-0.19619140625,9.56552734375,0.732421875,3.173828125,0.1220703125,0.0,0.0,0.0
11:23:33.227, 1.1484375,0.19140625,9.780859375,1.9236328125000002,-0.18183593750000002,9.646875000000001,0.54931640625,1.5869140625,0.54931640625,0.0,0.0,0.0
11:23:33.338, 1.1340820312500002,0.248828125,9.72822265625,1.9379882812500002,-0.19140625,9.603808593750001,-0.1220703125,1.03759765625,0.0,0.0,0.0,0.0
11:23:33.449, 1.12451171875,0.20576171875000002,9.7330078125,1.9475585937500002,-0.20576171875000002,9.589453125,-0.67138671875,0.1220703125,0.48828125,0.0,0.0,0.0
11:23:33.560, 1.091015625,0.13398437500000002,9.7138671875,1.9619140625000002,-0.19140625,9.5416015625,0.3662109375,-0.48828125,-0.1220703125,0.0,0.0,0.0
11:23:33.671, 1.15322265625,0.17705078125,9.7521484375,1.95234375,-0.21054687500000002,9.589453125,1.40380859375,-1.52587890625,-2.01416015625,0.0,0.0,0.0
11:23:33.781, 1.20107421875,0.30625,9.670800781250001,1.92841796875,-0.17705078125,9.575097656250001,1.52587890625,-1.953125,-1.8310546875,0.0,0.0,0.0
11:23:33.892, 1.244140625,0.30625,9.670800781250001,1.9379882812500002,-0.172265625,9.5703125,0.91552734375,-1.52587890625,-0.42724609375,0.0,0.0,0.0
11:23:34.002, 1.2776367187500002,0.32539062500000004,9.68037109375,1.9044921875,-0.18183593750000002,9.579882812500001,0.91552734375,-0.3662109375,-1.220703125,0.0,0.0,0.0
11:23:34.113, 1.2776367187500002,0.3541015625,9.72822265625,1.9571289062500001,-0.20576171875000002,9.622949218750001,0.54931640625,-0.06103515625,-1.03759765625,0.0,0.0,0.0
11:23:34.217, 1.24892578125,0.36845703125,9.70908203125,1.9475585937500002,-0.21054687500000002,9.551171875000001,0.3662109375,-0.06103515625,-0.3662109375,0.0,0.0,0.0
11:23:34.328, 1.244140625,0.33017578125,9.723437500000001,1.9379882812500002,-0.20576171875000002,9.599023437500001,-0.30517578125,0.8544921875,0.48828125,0.0,0.0,0.0
11:23:34.438, 1.225,0.32060546875,9.704296875,1.91884765625,-0.17705078125,9.575097656250001,0.0,0.1220703125,0.1220703125,0.0,0.0,0.0
11:23:34.548, 1.2345703125,0.33974609375000003,9.7330078125,1.92841796875,-0.22968750000000002,9.603808593750001,-0.244140625,0.48828125,0.06103515625,0.0,0.0,0.0
11:23:34.658, 1.24892578125,0.32060546875,9.66123046875,1.9475585937500002,-0.21054687500000002,9.603808593750001,0.30517578125,0.67138671875,0.0,0.0,0.0,0.0
11:23:34.769, 1.225,0.33017578125,9.742578125000001,1.9619140625000002,-0.20576171875000002,9.61337890625,-0.79345703125,1.0986328125,0.3662109375,0.0,0.0,0.0
11:23:34.880, 1.2154296875000001,0.31103515625,9.63251953125,1.9619140625000002,-0.19619140625,9.6373046875,-0.8544921875,1.0986328125,0.8544921875,0.0,0.0,0.0
11:23:34.990, 1.1819335937500002,0.28232421875,9.70908203125,1.9427734375,-0.2009765625,9.60859375,-1.15966796875,2.0751953125,0.48828125,0.0,0.0,0.0
11:23:35.100, 1.1197265625000001,0.22490234375,9.723437500000001,1.91884765625,-0.21054687500000002,9.575097656250001,-0.42724609375,1.64794921875,1.0986328125,0.0,0.0,0.0
11:23:35.211, 1.0958007812500001,0.21054687500000002,9.73779296875,1.95234375,-0.20576171875000002,9.6181640625,0.1220703125,0.732421875,0.18310546875,0.0,0.0,0.0
11:23:35.322, 1.0958007812500001,0.26318359375,9.666015625,1.9427734375,-0.21533203125000003,9.56552734375,0.3662109375,0.0,-0.732421875,0.0,0.0,0.0
11:23:35.432, 1.1101562500000002,0.32539062500000004,9.68515625,1.97626953125,-0.2009765625,9.579882812500001,0.30517578125,0.67138671875,-0.6103515625,0.0,0.0,0.0
11:23:35.543, 1.1005859375,0.26318359375,9.68515625,1.9427734375,-0.20576171875000002,9.622949218750001,0.0,0.06103515625,-0.244140625,0.0,0.0,0.0
11:23:35.653, 1.07666015625,0.26318359375,9.68515625,1.91884765625,-0.17705078125,9.59423828125,0.244140625,0.18310546875,0.0,0.0,0.0,0.0
11:23:35.763, 1.0862304687500002,0.27753906250000004,9.699511718750001,1.95234375,-0.21533203125000003,9.622949218750001,0.0,0.30517578125,-0.1220703125,0.0,0.0,0.0
11:23:35.874, 1.0958007812500001,0.30625,9.70908203125,1.9427734375,-0.19140625,9.575097656250001,-0.6103515625,0.8544921875,-0.244140625,0.0,0.0,0.0
11:23:35.985, 1.06708984375,0.2201171875,9.76171875,1.96669921875,-0.172265625,9.627734375000001,-0.48828125,1.0986328125,0.18310546875,0.0,0.0,0.0
11:23:36.096, 1.0144531250000002,0.21533203125000003,9.699511718750001,1.9714843750000002,-0.2009765625,9.579882812500001,0.79345703125,0.9765625,0.0,0.0,0.0,0.0
11:23:36.200, 0.976171875,0.26796875000000003,9.742578125000001,1.92841796875,-0.21054687500000002,9.60859375,0.54931640625,0.91552734375,-0.6103515625,0.0,0.0,0.0
11:23:36.311, 0.9666015625000001,0.27753906250000004,9.790429687500001,1.9379882812500002,-0.20576171875000002,9.551171875000001,0.79345703125,0.732421875,-0.54931640625,0.0,0.0,0.0
11:23:36.415, 0.9474609375,0.29189453125000003,9.72822265625,1.9379882812500002,-0.17705078125,9.60859375,0.42724609375,0.54931640625,-0.54931640625,0.0,0.0,0.0
11:23:36.526, 0.9474609375,0.30625,9.73779296875,1.9332031250000001,-0.18662109375000002,9.555957031250001,0.48828125,0.18310546875,-0.244140625,0.0,0.0,0.0
11:23:36.636, 0.9570312500000001,0.31582031250000003,9.68994140625,1.91884765625,-0.2201171875,9.63251953125,0.0,0.18310546875,0.0,0.0,0.0,0.0
11:23:36.746, 0.9905273437500001,0.26796875000000003,9.790429687500001,1.9236328125000002,-0.22490234375,9.579882812500001,-0.06103515625,0.244140625,0.3662109375,0.0,0.0,0.0
11:23:36.856, 0.9187500000000001,0.29189453125000003,9.78564453125,1.8997070312500002,-0.172265625,9.58466796875,0.54931640625,0.30517578125,-0.3662109375,0.0,0.0,0.0
11:23:36.967, 0.90439453125,0.287109375,9.68994140625,1.9571289062500001,-0.19140625,9.61337890625,0.91552734375,0.54931640625,-0.48828125,0.0,0.0,0.0
11:23:37.078, 0.8613281250000001,0.35888671875,9.747363281250001,1.9379882812500002,-0.20576171875000002,9.589453125,-0.06103515625,1.0986328125,-0.1220703125,0.0,0.0,0.0
11:23:37.189, 0.8708984375000001,0.28232421875,9.675585937500001,1.91884765625,-0.16269531250000002,9.39326171875,0.0,0.67138671875,0.48828125,0.0,0.0,0.0
11:23:37.298, 0.8900390625000001,0.29189453125000003,9.910058593750001,1.92841796875,-0.17705078125,9.670800781250001,1.220703125,0.1220703125,-0.42724609375,0.0,0.0,0.0
11:23:37.409, 0.80869140625,0.44501953125000004,9.508105468750001,1.9140625000000002,-0.21533203125000003,9.503320312500001,0.48828125,0.6103515625,-0.79345703125,0.0,0.0,0.0
11:23:37.519, 0.8469726562500001,0.3828125,9.87177734375,2.01455078125,-0.18662109375000002,9.551171875000001,-0.79345703125,-0.48828125,0.8544921875,0.0,0.0,0.0
11:23:37.645, 0.88046875,0.440234375,9.4267578125,1.9140625000000002,-0.23447265625000002,9.6181640625,0.91552734375,0.67138671875,-0.30517578125,0.0,0.0,0.0
11:23:37.756, 0.8661132812500001,0.45937500000000003,9.857421875,1.9571289062500001,-0.22490234375,9.5224609375,-3.0517578125,0.8544921875,1.03759765625,0.0,0.0,0.0
11:23:37.867, 0.95224609375,0.23925781250000003,9.862207031250001,1.9092773437500001,-0.172265625,9.699511718750001,-2.50244140625,-1.64794921875,4.82177734375,0.0,0.0,0.0
11:23:37.977, 0.8900390625000001,0.0478515625,9.48896484375,1.88056640625,-0.1435546875,9.484179687500001,-0.79345703125,0.732421875,1.708984375,-0.244140625,-0.06103515625,-0.06103515625
11:23:38.088, 0.9378906250000001,0.40673828125000006,10.02490234375,1.9954101562500002,-0.19619140625,9.651660156250001,2.38037109375,-1.708984375,-1.89208984375,-0.06103515625,0.06103515625,0.06103515625
11:23:38.191, 0.9618164062500001,0.42587890625,9.866992187500001,1.9427734375,-0.21054687500000002,9.4650390625,0.0,-3.173828125,-0.42724609375,0.06103515625,0.244140625,0.0
11:23:38.301, 0.9378906250000001,0.23925781250000003,9.694726562500001,1.8901367187500002,-0.18662109375000002,9.321484375,-1.15966796875,1.15966796875,2.01416015625,0.0,0.0,0.0
11:23:38.412, 0.9618164062500001,0.17705078125,9.80478515625,1.9427734375,-0.172265625,9.5703125,0.3662109375,0.244140625,0.79345703125,-0.30517578125,-0.1220703125,0.0
11:23:38.522, 0.9139648437500001,0.27753906250000004,9.70908203125,1.9332031250000001,-0.19140625,9.532031250000001,1.03759765625,-1.220703125,-2.13623046875,0.0,0.06103515625,-0.06103515625
11:23:38.633, 0.9905273437500001,0.401953125,9.6564453125,1.9475585937500002,-0.19140625,9.599023437500001,-0.18310546875,0.1220703125,-0.30517578125,0.0,0.0,0.0
11:23:38.743, 0.9570312500000001,0.16748046875,9.76171875,1.9714843750000002,-0.18183593750000002,9.63251953125,-1.3427734375,0.9765625,1.46484375,0.0,0.0,0.0
11:23:38.853, 0.9139648437500001,0.248828125,9.66123046875,1.97626953125,-0.21533203125000003,9.747363281250001,2.25830078125,-0.30517578125,-2.5634765625,0.244140625,-0.244140625,-0.1220703125
11:23:38.962, 0.899609375,0.36367187500000003,9.914843750000001,1.9475585937500002,-0.17705078125,9.7138671875,0.0,0.244140625,-1.52587890625,0.0,0.0,0.0
11:23:39.072, 0.9378906250000001,0.29189453125000003,9.651660156250001,1.9044921875,-0.19140625,9.54638671875,0.6103515625,-2.3193359375,0.3662109375,-0.06103515625,-0.1220703125,0.0
11:23:39.182, 0.9857421875000001,0.29189453125000003,9.704296875,1.990625,-0.18662109375000002,9.64208984375,0.0,-0.244140625,-0.67138671875,-0.06103515625,-0.1220703125,0.0
11:23:39.292, 0.9857421875000001,0.32539062500000004,9.814355468750001,1.9140625000000002,-0.19619140625,9.575097656250001,0.6103515625,-0.54931640625,-0.54931640625,0.06103515625,0.0,0.0
11:23:39.402, 0.9905273437500001,0.32060546875,9.603808593750001,1.9379882812500002,-0.21054687500000002,9.551171875000001,0.8544921875,-0.54931640625,0.0,-0.06103515625,-0.1220703125,0.0
11:23:39.512, 0.9666015625000001,0.30625,9.723437500000001,1.9475585937500002,-0.17705078125,9.603808593750001,0.0,0.91552734375,0.244140625,-0.06103515625,0.1220703125,0.0
11:23:39.622, 0.9666015625000001,0.32060546875,9.80478515625,1.95234375,-0.2009765625,9.555957031250001,0.67138671875,0.244140625,-0.1220703125,0.0,0.06103515625,0.18310546875
11:23:39.733, 0.9618164062500001,0.3541015625,9.66123046875,1.9475585937500002,-0.18183593750000002,9.61337890625,0.91552734375,-0.9765625,-1.15966796875,0.0,0.0,0.0
11:23:39.843, 1.02880859375,0.43544921875000003,9.82392578125,1.9332031250000001,-0.19619140625,9.646875000000001,0.67138671875,-1.0986328125,-0.3662109375,0.0,0.0,0.0
11:23:39.954, 1.02880859375,0.38759765625000003,9.72822265625,1.9044921875,-0.21054687500000002,9.551171875000001,0.244140625,-2.01416015625,0.18310546875,0.0,0.0,0.0
11:23:40.064, 1.0718750000000001,0.37802734375,9.68994140625,1.9092773437500001,-0.2009765625,9.6181640625,0.1220703125,-1.40380859375,-0.30517578125,0.0,0.0,0.0
11:23:40.168, 1.0862304687500002,0.43544921875000003,9.843066406250001,1.9379882812500002,-0.2201171875,9.599023437500001,-0.3662109375,-1.40380859375,-0.54931640625,0.0,0.0,0.0
11:23:40.278, 1.1197265625000001,0.34931640625000004,9.646875000000001,1.9332031250000001,-0.22490234375,9.56552734375,0.244140625,-1.52587890625,0.42724609375,0.0,0.0,0.0
11:23:40.389, 1.1388671875,0.39716796875000004,9.75693359375,1.92841796875,-0.21054687500000002,9.60859375,0.0,0.0,0.1220703125,0.0,0.0,0.0
11:23:40.499, 1.0814453125,0.401953125,9.68994140625,1.9092773437500001,-0.2009765625,9.5607421875,-0.30517578125,0.244140625,-0.1220703125,0.0,0.0,0.0
11:23:40.609, 1.10537109375,0.39716796875000004,9.694726562500001,1.96669921875,-0.2201171875,9.63251953125,-0.42724609375,1.03759765625,0.1220703125,0.0,0.0,0.0
11:23:40.719, 1.07666015625,0.33974609375000003,9.694726562500001,1.9427734375,-0.19140625,9.59423828125,-0.732421875,1.40380859375,0.79345703125,0.0,0.0,0.0
11:23:40.829, 1.02880859375,0.30625,9.68515625,1.9714843750000002,-0.18662109375000002,9.579882812500001,0.0,2.86865234375,-0.18310546875,0.0,0.0,0.0
11:23:40.940, 1.00966796875,0.36845703125,9.87177734375,1.9714843750000002,-0.22968750000000002,9.599023437500001,0.48828125,2.3193359375,-0.42724609375,0.0,0.0,0.0
11:23:41.050, 0.9331054687500001,0.34453125,9.68994140625,1.91884765625,-0.22490234375,9.599023437500001,0.9765625,2.86865234375,-0.30517578125,0.0,0.0,0.0
11:23:41.161, 0.899609375,0.32539062500000004,9.747363281250001,1.9619140625000002,-0.16269531250000002,9.60859375,1.52587890625,4.94384765625,-0.79345703125,0.0,0.0,0.0
11:23:41.271, 0.765625,0.44501953125000004,9.790429687500001,1.9236328125000002,-0.18662109375000002,9.603808593750001,2.50244140625,4.45556640625,-2.25830078125,0.0,0.0,0.0
11:23:41.381, 0.61728515625,0.5455078125,9.72822265625,1.9236328125000002,-0.19619140625,9.579882812500001,1.52587890625,3.23486328125,-1.52587890625,0.0,0.0,0.0
11:23:41.492, 0.61728515625,0.52158203125,9.795214843750001,1.9475585937500002,-0.21054687500000002,9.622949218750001,1.3427734375,2.9296875,-0.3662109375,0.0,0.0,0.0
11:23:41.602, 0.57421875,0.593359375,9.7138671875,1.9858398437500002,-0.2009765625,9.63251953125,2.13623046875,0.244140625,-1.0986328125,0.0,0.0,0.0
11:23:41.729, 0.6220703125,0.669921875,9.78564453125,1.9954101562500002,-0.18183593750000002,9.704296875,1.03759765625,0.0,-0.42724609375,0.48828125,-1.0986328125,-0.244140625
11:23:41.839, 0.61728515625,0.6268554687500001,9.742578125000001,1.9427734375,-0.2009765625,9.61337890625,0.42724609375,-0.1220703125,0.0,0.06103515625,0.1220703125,0.0
11:23:41.948, 0.593359375,0.593359375,9.66123046875,1.9858398437500002,-0.19619140625,9.599023437500001,0.54931640625,-0.1220703125,0.18310546875,0.0,0.06103515625,0.0
11:23:42.058, 0.6220703125,0.6507812500000001,9.747363281250001,1.9092773437500001,-0.18662109375000002,9.603808593750001,-0.06103515625,0.1220703125,-0.06103515625,0.0,0.06103515625,0.0
11:23:42.162, 0.6316406250000001,0.6029296875000001,9.718652343750001,1.9140625000000002,-0.17705078125,9.575097656250001,0.18310546875,-0.42724609375,0.48828125,-0.06103515625,0.0,-0.1220703125
11:23:42.273, 0.6077148437500001,0.58857421875,9.699511718750001,1.9236328125000002,-0.2201171875,9.575097656250001,-0.30517578125,-0.79345703125,0.1220703125,0.0,0.0,0.1220703125
11:23:42.383, 0.6316406250000001,0.6220703125,9.766503906250001,1.92841796875,-0.18183593750000002,9.555957031250001,-0.3662109375,0.3662109375,0.0,-0.1220703125,0.18310546875,-0.06103515625
11:23:42.493, 0.6125,0.63642578125,9.68037109375,2.18203125,-0.2583984375,10.077539062500001,-0.54931640625,-0.06103515625,0.54931640625,0.8544921875,-1.220703125,0.244140625
11:23:42.603, 0.6316406250000001,0.669921875,9.7138671875,1.9954101562500002,-0.2009765625,9.73779296875,-2.0751953125,1.220703125,1.8310546875,-0.18310546875,0.1220703125,0.06103515625
11:23:42.712, 0.5646484375,0.56943359375,9.780859375,1.91884765625,-0.18183593750000002,9.589453125,-2.74658203125,1.28173828125,2.5634765625,0.1220703125,0.1220703125,-0.06103515625
11:23:42.823, 0.5646484375,0.5120117187500001,9.7138671875,1.9236328125000002,-0.17705078125,9.555957031250001,-4.45556640625,1.5869140625,4.150390625,0.0,0.0,0.06103515625
11:23:42.934, 0.4880859375,0.34453125,9.742578125000001,1.9427734375,-0.21533203125000003,9.6181640625,-5.18798828125,2.3193359375,4.638671875,0.0,0.06103515625,0.0
11:23:43.045, 0.49287109375000004,0.2009765625,9.7521484375,1.9236328125000002,-0.2966796875,9.029589843750001,-4.150390625,2.0751953125,4.21142578125,-0.3662109375,-0.54931640625,0.244140625
11:23:43.155, 0.42587890625,0.13876953125000002,9.82392578125,1.9044921875,-0.20576171875000002,9.6181640625,-5.18798828125,2.01416015625,2.74658203125,0.0,0.0,0.06103515625
11:23:43.266, 0.43544921875000003,0.06220703125,9.747363281250001,1.9236328125000002,-0.18183593750000002,9.58466796875,-3.72314453125,0.67138671875,2.74658203125,0.0,0.1220703125,0.0
11:23:43.375, 0.401953125,-0.06220703125,9.73779296875,1.9379882812500002,-0.19140625,9.6181640625,-1.46484375,0.06103515625,1.3427734375,0.0,0.18310546875,0.0
11:23:43.486, 0.39716796875000004,-0.06699218750000001,9.819140625000001,1.9427734375,-0.18662109375000002,9.60859375,0.0,0.0,0.06103515625,0.06103515625,0.0,0.0
11:23:43.596, 0.3828125,0.0,9.780859375,1.9092773437500001,-0.18183593750000002,9.59423828125,2.86865234375,-2.50244140625,-1.89208984375,0.0,-0.06103515625,0.0
11:23:43.706, 0.44501953125000004,0.09091796875000001,9.8287109375,1.95234375,-0.20576171875000002,9.627734375000001,4.39453125,-4.2724609375,-3.72314453125,0.0,-0.1220703125,-0.06103515625
11:23:43.816, 0.54072265625,0.32060546875,9.933984375000001,1.9236328125000002,-0.21533203125000003,9.59423828125,4.638671875,-9.521484375,-5.79833984375,0.1220703125,0.0,-0.1220703125
11:23:43.926, 0.80869140625,0.38759765625000003,9.92919921875,1.92841796875,-0.19619140625,9.6181640625,1.28173828125,-21.30126953125,-4.5166015625,0.06103515625,0.0,0.0
11:23:44.036, 1.2393554687500001,0.45937500000000003,9.742578125000001,1.9044921875,-0.20576171875000002,9.6373046875,2.86865234375,-19.10400390625,-3.41796875,0.0,0.06103515625,0.0
11:23:44.155, 1.63173828125,0.42587890625,9.51767578125,1.9140625000000002,-0.19140625,9.56552734375,1.89208984375,-23.49853515625,-2.62451171875,0.06103515625,-0.1220703125,0.06103515625
11:23:44.265, 2.4069335937500003,0.56943359375,9.268847656250001,1.9619140625000002,-0.20576171875000002,9.551171875000001,-0.18310546875,0.42724609375,-0.91552734375,0.18310546875,0.06103515625,0.0
11:23:44.376, 1.9236328125000002,0.401953125,9.627734375000001,1.9092773437500001,-0.172265625,9.555957031250001,-0.06103515625,2.5634765625,2.01416015625,0.0,0.0,0.0
11:23:44.486, 2.0958984375000003,0.35888671875,9.244921875000001,1.97626953125,-0.20576171875000002,9.622949218750001,1.64794921875,5.31005859375,0.18310546875,0.0,0.0,0.0
11:23:44.596, 1.7226562500000002,0.42587890625,9.22578125,1.91884765625,-0.19619140625,9.527246093750001,-1.46484375,23.25439453125,-1.52587890625,0.0,0.0,0.0
11:23:44.706, 1.0431640625,0.66513671875,9.814355468750001,1.9571289062500001,-0.20576171875000002,9.589453125,0.8544921875,23.37646484375,3.90625,0.0,0.0,0.0
11:23:44.816, 0.23447265625000002,0.39716796875000004,9.981835937500001,1.9044921875,-0.18662109375000002,9.5607421875,0.0,14.6484375,14.58740234375,0.0,0.0,0.0
11:23:44.927, -0.057421875000000004,0.34453125,9.780859375,1.9619140625000002,-0.172265625,9.5703125,4.21142578125,11.53564453125,10.986328125,0.0,0.0,0.0
11:23:45.037, -0.5455078125,-0.03828125,10.33115234375,1.9044921875,-0.2009765625,9.53681640625,2.685546875,5.67626953125,1.220703125,0.0,0.0,0.0
11:23:45.148, 0.11005859375,0.33974609375000003,9.646875000000001,1.97626953125,-0.172265625,9.627734375000001,-0.732421875,-3.90625,-1.8310546875,0.0,0.0,0.0
11:23:45.258, 0.12919921875,1.24892578125,10.61826171875,1.9571289062500001,-0.21533203125000003,9.61337890625,1.5869140625,-3.41796875,-1.03759765625,0.0,0.0,0.0
11:23:45.368, 0.019140625,0.028710937500000002,9.555957031250001,1.8757812500000002,-0.20576171875000002,9.54638671875,4.5166015625,-3.5400390625,2.197265625,0.0,0.0,0.0
11:23:45.478, 0.1244140625,0.784765625,9.45068359375,1.91884765625,-0.2201171875,9.603808593750001,2.13623046875,0.244140625,-8.544921875,0.0,0.0,0.0
11:23:45.588, 0.2009765625,1.2537109375000002,10.029687500000001,1.9236328125000002,-0.17705078125,9.527246093750001,7.6904296875,2.44140625,34.3017578125,0.0,0.0,0.0
11:23:45.699, 0.11005859375,0.26318359375,10.2880859375,1.9571289062500001,-0.18183593750000002,9.622949218750001,6.34765625,-19.287109375,14.0380859375,0.0,0.0,0.0
11:23:45.810, 0.30625,0.5598632812500001,10.178027343750001,1.856640625,-0.1435546875,9.61337890625,-9.8876953125,-24.84130859375,-23.62060546875,0.0,0.0,0.0
11:23:45.920, 1.2393554687500001,1.1819335937500002,9.589453125,1.9140625000000002,-0.2201171875,9.651660156250001,-10.986328125,-25.93994140625,-10.8642578125,0.0,0.0,0.0
11:23:46.030, 2.3590820312500003,0.11962890625000001,9.10615234375,1.9714843750000002,-0.2009765625,9.60859375,-3.35693359375,-29.47998046875,-6.7138671875,0.0,0.0,0.0
11:23:46.141, 2.1198242187500003,0.593359375,9.13486328125,1.9236328125000002,-0.19140625,9.49853515625,4.82177734375,-12.75634765625,-12.14599609375,0.0,0.0,0.0
11:23:46.244, 2.2155273437500003,0.7177734375,9.091796875,1.8853515625000001,-0.18183593750000002,9.532031250000001,3.60107421875,-9.521484375,-10.25390625,0.0,0.0,0.0
11:23:46.355, 3.1007812500000003,0.5311523437500001,9.25927734375,1.8183593750000002,-0.31582031250000003,9.675585937500001,-5.7373046875,-1.708984375,-2.3193359375,-0.18310546875,0.30517578125,-0.06103515625
11:23:46.465, 2.5026367187500003,0.7704101562500001,9.747363281250001,1.97626953125,-0.2201171875,9.5224609375,4.69970703125,15.31982421875,4.150390625,0.0,0.0,-0.1220703125
11:23:46.574, 1.8422851562500002,0.6794921875000001,9.8765625,1.9236328125000002,-0.18183593750000002,9.627734375000001,4.150390625,2.62451171875,0.67138671875,0.1220703125,0.0,0.0
11:23:46.684, 1.96669921875,0.7225585937500001,9.96748046875,1.9140625000000002,-0.16748046875,9.651660156250001,1.220703125,-1.77001953125,-2.99072265625,0.0,-0.18310546875,0.06103515625
11:23:46.795, 2.15810546875,1.0431640625,9.6181640625,1.9858398437500002,-0.248828125,9.48896484375,2.13623046875,-13.85498046875,-2.3193359375,0.0,0.18310546875,0.0
11:23:46.906, 3.62236328125,0.976171875,8.70419921875,1.9475585937500002,-0.172265625,9.675585937500001,-2.8076171875,1.0986328125,3.0517578125,0.0,0.0,-0.06103515625
11:23:47.017, 1.9714843750000002,0.71298828125,9.48896484375,1.96669921875,-0.18662109375000002,9.579882812500001,-6.103515625,12.0849609375,7.87353515625,0.0,0.06103515625,-0.06103515625
11:23:47.128, 2.94287109375,0.33974609375000003,9.292773437500001,1.97626953125,-0.22490234375,9.63251953125,-0.54931640625,-0.6103515625,2.13623046875,-0.1220703125,0.0,0.06103515625
11:23:47.239, 2.17724609375,0.36845703125,9.56552734375,1.9092773437500001,-0.21054687500000002,9.6373046875,0.54931640625,1.0986328125,1.77001953125,0.1220703125,-0.1220703125,0.0
11:23:47.348, 2.3447265625,0.41152343750000003,9.6373046875,1.92841796875,-0.19619140625,9.59423828125,2.13623046875,0.8544921875,-2.86865234375,0.06103515625,0.0,0.0
11:23:47.460, 2.583984375,0.45458984375000006,9.4458984375,1.9571289062500001,-0.172265625,9.59423828125,1.15966796875,1.03759765625,-6.53076171875,-0.06103515625,-0.06103515625,-0.06103515625
11:23:47.570, 2.45,1.0144531250000002,9.40283203125,1.8901367187500002,-0.19140625,9.5224609375,1.8310546875,-1.28173828125,-2.50244140625,0.0,0.06103515625,0.0
11:23:47.681, 2.42607421875,0.9905273437500001,9.484179687500001,1.97626953125,-0.19140625,9.599023437500001,-2.44140625,1.89208984375,3.5400390625,-0.18310546875,0.18310546875,0.06103515625
11:23:47.791, 2.3399414062500004,0.6603515625,9.54638671875,1.8997070312500002,-0.17705078125,9.512890625,-3.2958984375,2.13623046875,6.34765625,0.0,0.0,0.0
11:23:47.901, 2.2442382812500004,0.43544921875000003,9.48896484375,1.9475585937500002,-0.19619140625,9.551171875000001,-2.25830078125,1.64794921875,5.18798828125,0.0,0.0,0.0
11:23:48.014, 2.25859375,0.34931640625000004,9.646875000000001,1.9858398437500002,-0.2009765625,9.599023437500001,0.1220703125,-0.54931640625,2.50244140625,0.0,0.0,0.0
11:23:48.125, 2.25859375,0.42587890625,9.44111328125,1.9332031250000001,-0.2201171875,9.60859375,4.638671875,-1.5869140625,-0.30517578125,0.0,0.0,0.0
11:23:48.229, 2.3112304687500003,0.6555664062500001,9.503320312500001,1.9236328125000002,-0.19619140625,9.60859375,0.1220703125,-0.18310546875,-1.52587890625,0.0,0.0,0.0
11:23:48.339, 2.3160156250000004,0.6794921875000001,9.512890625,1.92841796875,-0.17705078125,9.589453125,0.0,-0.18310546875,-0.30517578125,0.0,0.0,0.0
11:23:48.449, 2.3255859375,0.669921875,9.4267578125,1.9571289062500001,-0.22968750000000002,9.5703125,-0.79345703125,0.30517578125,1.89208984375,0.0,0.0,0.0
11:23:48.560, 2.3590820312500003,0.5072265625000001,9.53681640625,1.95234375,-0.20576171875000002,9.63251953125,-1.40380859375,0.42724609375,2.44140625,0.0,0.0,0.0
11:23:48.670, 2.2920898437500004,0.41152343750000003,9.4458984375,1.9714843750000002,-0.19140625,9.575097656250001,-0.48828125,0.1220703125,0.48828125,0.0,0.0,0.0
11:23:48.781, 2.277734375,0.49765625,9.49375,1.9092773437500001,-0.20576171875000002,9.603808593750001,0.244140625,0.0,-0.54931640625,0.0,0.0,0.0
11:23:48.891, 2.3399414062500004,0.5120117187500001,9.508105468750001,1.990625,-0.20576171875000002,9.579882812500001,0.0,0.1220703125,-1.03759765625,0.0,0.0,0.0
11:23:49.001, 2.3064453125,0.5455078125,9.49853515625,1.8662109375000002,-0.20576171875000002,9.5703125,0.1220703125,0.0,-0.9765625,0.0,0.0,0.0
11:23:49.111, 2.2920898437500004,0.47851562500000006,9.5416015625,1.9379882812500002,-0.17705078125,9.61337890625,0.0,-0.1220703125,0.1220703125,0.0,0.0,0.0
11:23:49.222, 2.3112304687500003,0.52158203125,9.479394531250001,1.894921875,-0.21054687500000002,9.53681640625,-0.244140625,0.48828125,0.0,0.0,0.0,0.0
11:23:49.332, 2.32080078125,0.5550781250000001,9.579882812500001,1.990625,-0.21054687500000002,9.63251953125,-0.244140625,0.6103515625,0.48828125,0.0,0.0,0.0
11:23:49.443, 2.25859375,0.5263671875,9.474609375,1.9427734375,-0.21054687500000002,9.54638671875,-0.18310546875,0.30517578125,0.6103515625,0.0,0.0,0.0
11:23:49.554, 2.28251953125,0.46416015625,9.53681640625,1.9475585937500002,-0.22490234375,9.694726562500001,-0.30517578125,0.18310546875,0.0,0.1220703125,0.0,0.06103515625
11:23:49.664, 2.2681640625000004,0.5837890625000001,9.579882812500001,1.9858398437500002,-0.21054687500000002,9.675585937500001,0.06103515625,0.42724609375,0.0,0.0,0.0,0.0
11:23:49.776, 2.30166015625,0.45937500000000003,9.4171875,1.97626953125,-0.2201171875,9.68515625,-0.67138671875,0.48828125,0.8544921875,0.0,-0.8544921875,0.06103515625
11:23:49.886, 2.32080078125,0.4880859375,9.555957031250001,1.91884765625,-0.22490234375,9.575097656250001,-0.48828125,0.67138671875,0.9765625,0.244140625,0.0,0.06103515625
11:23:49.997, 2.2873046875000003,0.41152343750000003,9.484179687500001,1.92841796875,-0.15791015625000002,9.60859375,-0.42724609375,0.3662109375,0.42724609375,0.0,0.06103515625,-0.06103515625
11:23:50.106, 2.32080078125,0.516796875,9.527246093750001,2.0958984375000003,-0.31582031250000003,10.436425781250001,0.9765625,0.67138671875,-0.67138671875,0.54931640625,1.40380859375,-0.1220703125
11:23:50.211, 2.1150390625,0.5455078125,9.474609375,1.6365234375000002,0.057421875000000004,10.173242187500001,-0.1220703125,0.48828125,0.8544921875,1.0986328125,-0.244140625,-0.30517578125
11:23:50.321, 2.4547851562500003,0.37802734375,9.627734375000001,1.5168945312500002,0.22490234375,6.718359375,-1.64794921875,1.77001953125,0.9765625,-1.52587890625,-3.2958984375,-0.8544921875
11:23:50.431, 2.04326171875,0.39716796875000004,9.436328125000001,1.9332031250000001,-0.27275390625,9.4650390625,0.18310546875,-0.30517578125,-0.3662109375,-0.1220703125,0.0,0.0
11:23:50.542, 2.33037109375,0.5598632812500001,9.59423828125,1.9236328125000002,-0.18662109375000002,9.59423828125,1.3427734375,1.708984375,-1.77001953125,-0.06103515625,-0.06103515625,0.18310546875
11:23:50.652, 2.15810546875,0.43544921875000003,9.503320312500001,1.92841796875,-0.19619140625,9.555957031250001,-1.28173828125,0.91552734375,0.67138671875,0.0,0.0,-0.06103515625
11:23:50.763, 2.0049804687500004,0.35888671875,9.8,1.92841796875,-0.19140625,9.5416015625,0.3662109375,-0.6103515625,-1.0986328125,-0.06103515625,-0.06103515625,-0.1220703125
11:23:50.873, 2.392578125,0.43544921875000003,9.45068359375,1.9475585937500002,-0.22968750000000002,9.555957031250001,0.732421875,-0.48828125,-2.74658203125,0.0,0.0,0.0
11:23:50.983, 2.2203125000000004,0.39716796875000004,9.34541015625,1.9044921875,-0.17705078125,9.5607421875,4.21142578125,-4.39453125,-2.9296875,0.06103515625,0.0,0.0
11:23:51.092, 2.18203125,0.74169921875,9.39326171875,1.9475585937500002,-0.20576171875000002,9.5607421875,6.2255859375,-1.0986328125,-4.94384765625,0.0,0.0,-0.06103515625
11:23:51.203, 2.354296875,0.8517578125,9.5416015625,1.9332031250000001,-0.19619140625,9.579882812500001,5.31005859375,-1.46484375,-4.94384765625,0.0,0.1220703125,0.06103515625
11:23:51.313, 2.3638671875000004,1.02880859375,9.5224609375,1.96669921875,-0.21533203125000003,9.63251953125,-0.244140625,0.0,-0.9765625,0.18310546875,-0.1220703125,0.0
11:23:51.423, 2.44521484375,0.8517578125,9.7138671875,1.9427734375,-0.19140625,9.6564453125,-0.6103515625,-0.6103515625,-0.3662109375,0.0,0.0,0.0
11:23:51.533, 2.3734375,0.9666015625000001,9.5607421875,1.894921875,-0.20576171875000002,9.58466796875,1.3427734375,-1.89208984375,0.30517578125,0.0,0.0,0.0
11:23:51.645, 2.25859375,0.8948242187500001,9.5416015625,1.9092773437500001,-0.16269531250000002,9.599023437500001,0.0,-0.48828125,0.0,0.0,0.0,0.0
11:23:51.755, 2.2394531250000003,0.80869140625,9.46982421875,1.95234375,-0.19140625,9.59423828125,-1.28173828125,1.708984375,0.0,0.0,0.0,0.0
11:23:51.866, 2.2681640625000004,0.85654296875,9.579882812500001,1.88056640625,-0.20576171875000002,9.5703125,0.1220703125,0.18310546875,-0.91552734375,0.0,0.0,0.0
11:23:51.976, 2.2155273437500003,0.7464843750000001,9.68037109375,1.9140625000000002,-0.2201171875,9.622949218750001,-0.06103515625,1.40380859375,0.244140625,0.0,0.0,0.0
11:23:52.086, 2.3399414062500004,0.8134765625000001,9.206640625,1.9571289062500001,-0.17705078125,9.61337890625,-1.15966796875,3.47900390625,-0.79345703125,0.0,0.0,0.0
11:23:52.189, 2.0767578125000004,0.8852539062500001,10.795312500000001,1.8997070312500002,-0.20576171875000002,9.56552734375,-0.6103515625,-6.9580078125,-1.77001953125,0.0,0.0,0.0
11:23:52.299, 2.18681640625,1.01923828125,9.527246093750001,1.9954101562500002,-0.2201171875,9.59423828125,1.52587890625,1.8310546875,-1.0986328125,0.0,0.0,0.0
11:23:52.408, 2.3399414062500004,0.9570312500000001,9.6564453125,1.9236328125000002,-0.18662109375000002,9.56552734375,-2.13623046875,1.64794921875,2.3193359375,0.0,0.0,0.0
11:23:52.518, 2.354296875,0.74169921875,9.3501953125,1.8997070312500002,-0.2009765625,9.60859375,-0.732421875,1.0986328125,2.01416015625,0.0,0.0,0.0
11:23:52.644, 2.22509765625,0.7991210937500001,9.45068359375,1.9810546875000001,-0.22490234375,9.603808593750001,1.46484375,5.126953125,0.67138671875,0.0,0.0,0.0
11:23:52.755, 2.1437500000000003,0.8948242187500001,9.30234375,1.9810546875000001,-0.2009765625,9.58466796875,-4.57763671875,13.24462890625,-1.46484375,0.0,0.0,0.0
11:23:52.866, 1.78486328125,0.9426757812500001,9.957910156250001,1.8757812500000002,-0.172265625,9.58466796875,-4.57763671875,7.6904296875,-2.38037109375,0.0,0.0,0.0
11:23:52.975, 1.4259765625,0.6268554687500001,9.599023437500001,1.9619140625000002,-0.17705078125,9.646875000000001,0.0,8.056640625,2.50244140625,0.0,0.0,0.0
11:23:53.086, 1.129296875,0.3349609375,10.18759765625,1.9427734375,-0.2201171875,9.589453125,-0.67138671875,-3.7841796875,-5.126953125,0.0,0.0,0.0
11:23:53.196, 2.0384765625,0.9666015625000001,9.01044921875,1.9332031250000001,-0.19140625,9.589453125,1.64794921875,-4.7607421875,-7.50732421875,0.0,0.0,0.0
11:23:53.306, 1.6843750000000002,0.7512695312500001,9.92919921875,1.9619140625000002,-0.18183593750000002,9.61337890625,0.91552734375,1.220703125,-0.1220703125,0.0,0.0,0.0
11:23:53.416, 1.6460937500000001,0.8708984375000001,9.651660156250001,1.9140625000000002,-0.2201171875,9.60859375,3.35693359375,-9.21630859375,-4.57763671875,0.0,0.0,0.0
11:23:53.526, 1.9236328125000002,0.9809570312500001,9.311914062500001,1.9044921875,-0.22490234375,9.56552734375,-5.4931640625,-4.2724609375,2.197265625,0.0,0.0,0.0
11:23:53.637, 2.0049804687500004,0.5790039062500001,9.8765625,1.8853515625000001,-0.22490234375,9.589453125,-1.77001953125,-5.126953125,3.47900390625,0.0,0.0,0.0
11:23:53.748, 2.11025390625,0.6890625,9.455468750000001,1.9475585937500002,-0.20576171875000002,9.60859375,-5.0048828125,-7.8125,-2.13623046875,0.0,0.0,0.0
11:23:53.858, 2.15810546875,0.57421875,9.436328125000001,1.9044921875,-0.17705078125,9.575097656250001,-4.21142578125,5.43212890625,6.53076171875,0.0,0.0,0.0
11:23:53.969, 1.8997070312500002,-0.28232421875,9.666015625,1.96669921875,-0.19619140625,9.589453125,-4.150390625,-0.3662109375,5.615234375,0.0,0.0,0.0
11:23:54.078, 2.0767578125000004,-0.172265625,9.16357421875,1.9619140625000002,-0.21054687500000002,9.622949218750001,3.173828125,1.3427734375,-4.57763671875,0.0,0.0,0.0
11:23:54.182, 2.41650390625,0.516796875,9.20185546875,1.8997070312500002,-0.19140625,9.58466796875,5.859375,0.0,-12.5732421875,0.0,0.0,0.0
11:23:54.293, 1.7226562500000002,0.8326171875,10.26416015625,1.990625,-0.21054687500000002,9.627734375000001,4.0283203125,-2.197265625,-6.89697265625,0.0,0.0,0.0
11:23:54.405, 2.1916015625000003,1.1436523437500001,9.398046875,1.9092773437500001,-0.24404296875,9.54638671875,2.38037109375,-1.3427734375,-2.5634765625,0.0,0.0,0.0
11:23:54.515, 1.9619140625000002,0.80869140625,9.72822265625,1.894921875,-0.23447265625000002,9.60859375,-6.103515625,0.9765625,3.23486328125,0.0,0.0,0.0
11:23:54.626, 2.0480468750000003,0.8517578125,9.484179687500001,1.894921875,-0.16748046875,9.59423828125,0.67138671875,0.6103515625,2.13623046875,0.0,0.0,0.0
11:23:54.738, 2.0193359375,0.7464843750000001,9.474609375,1.92841796875,-0.172265625,9.64208984375,-0.42724609375,0.18310546875,1.220703125,0.0,0.0,0.0
11:23:54.842, 1.9332031250000001,0.9905273437500001,9.49853515625,1.9379882812500002,-0.23447265625000002,9.599023437500001,2.62451171875,-0.6103515625,-0.3662109375,0.0,0.0,0.0
11:23:54.954, 2.08154296875,0.765625,9.54638671875,1.9714843750000002,-0.19140625,9.58466796875,-0.06103515625,1.0986328125,0.54931640625,0.0,0.0,0.0
11:23:55.066, 1.91884765625,0.80390625,9.5607421875,1.8997070312500002,-0.17705078125,9.622949218750001,0.67138671875,-0.6103515625,-1.52587890625,0.0,0.0,0.0
11:23:55.176, 1.9236328125000002,0.8613281250000001,9.5416015625,1.9332031250000001,-0.248828125,9.5703125,0.54931640625,-0.8544921875,-0.732421875,0.0,0.0,0.0
11:23:55.288, 2.0241210937500003,0.9091796875000001,9.5224609375,1.92841796875,-0.19619140625,9.59423828125,0.1220703125,0.79345703125,-0.42724609375,0.0,0.0,0.0
11:23:55.398, 2.1485351562500004,0.9953125,9.532031250000001,1.91884765625,-0.18662109375000002,9.59423828125,-2.01416015625,-0.06103515625,0.8544921875,0.0,0.0,0.0
11:23:55.509, 1.9092773437500001,0.8708984375000001,9.532031250000001,1.990625,-0.19140625,9.575097656250001,-2.74658203125,1.3427734375,2.74658203125,0.0,0.0,0.0
