Time, AccX1, AccY1, AccZ1, AccX2, AccY2, AccZ2, AngVelX1, AngVelY1, AngVelZ1, AngVelX2, AngVelY2, AngVelZ2
14:38:27.999, 0.0,0.0,0.0,0.0,0.0,0.0,0.0,0.0,0.0,0.0,0.0,0.0
14:38:28.102, -0.7034179687500001,0.5072265625000001,9.78564453125,-1.8375000000000001,0.08134765625000001,9.508105468750001,-0.244140625,0.30517578125,-0.06103515625,0.0,0.0,0.0
14:38:28.213, -0.6747070312500001,0.6029296875000001,9.76171875,-1.88056640625,0.08134765625000001,9.5703125,0.244140625,-0.54931640625,-0.54931640625,0.0,0.0,0.0
14:38:28.323, -0.6555664062500001,0.593359375,9.742578125000001,-1.8853515625000001,0.052636718750000006,9.512890625,0.18310546875,-0.1220703125,0.30517578125,0.0,0.0,0.0
14:38:28.449, -0.6412109375,0.52158203125,9.70908203125,-1.8040039062500002,0.06699218750000001,9.5703125,-0.06103515625,0.0,0.244140625,0.0,0.0,0.0
14:38:28.559, -0.6603515625,0.5598632812500001,9.7330078125,-1.8279296875000002,0.10048828125,9.532031250000001,0.1220703125,0.3662109375,-0.8544921875,-0.1220703125,0.0,-0.06103515625
14:38:28.669, -0.66513671875,0.6029296875000001,9.771289062500001,-1.8422851562500002,0.057421875000000004,9.5224609375,0.244140625,0.0,-0.48828125,-0.06103515625,-0.244140625,0.06103515625
14:38:28.779, -0.6890625,0.5646484375,9.771289062500001,-1.8375000000000001,0.08134765625000001,9.5416015625,0.06103515625,-0.18310546875,0.30517578125,0.0,0.0,0.0
14:38:28.889, -0.6747070312500001,0.54072265625,9.6564453125,-1.8662109375000002,0.1244140625,9.5224609375,0.18310546875,0.1220703125,-0.18310546875,0.06103515625,0.0,0.0
14:38:28.998, -0.7034179687500001,0.6220703125,9.80478515625,-1.8614257812500001,0.10048828125,9.532031250000001,1.03759765625,0.0,-0.67138671875,0.06103515625,0.0,-0.1220703125
14:38:29.110, -0.6603515625,0.63642578125,9.766503906250001,-1.7705078125000002,0.019140625,9.5416015625,0.732421875,0.6103515625,-0.1220703125,0.0,0.06103515625,0.0
14:38:29.219, -0.6890625,0.6603515625,9.61337890625,-1.8614257812500001,0.11962890625000001,9.53681640625,0.18310546875,-0.244140625,0.0,-0.06103515625,0.0,0.06103515625
14:38:29.329, -0.76083984375,0.61728515625,9.82392578125,-1.88056640625,0.095703125,9.51767578125,-0.244140625,-0.6103515625,-0.3662109375,-0.18310546875,-0.06103515625,0.0
14:38:29.440, -0.69384765625,0.6029296875000001,9.699511718750001,-1.8422851562500002,0.0861328125,9.54638671875,0.30517578125,0.244140625,1.03759765625,-0.30517578125,-0.30517578125,0.0
14:38:29.550, -0.61728515625,0.64599609375,9.8,-1.8135742187500001,0.00478515625,9.59423828125,0.06103515625,-0.732421875,-0.48828125,0.0,0.0,0.0
14:38:29.660, -0.73212890625,0.64599609375,9.7330078125,-1.9571289062500001,0.052636718750000006,9.460253906250001,-0.06103515625,1.52587890625,-0.48828125,0.0,0.0,0.0
14:38:29.770, -0.7704101562500001,0.66513671875,9.670800781250001,-1.88056640625,0.019140625,9.61337890625,0.6103515625,0.1220703125,-0.30517578125,-0.42724609375,-0.42724609375,0.0
14:38:29.880, -0.5359375000000001,0.516796875,9.70908203125,-1.8040039062500002,0.10527343750000001,9.5607421875,1.5869140625,-2.3193359375,-0.67138671875,-0.18310546875,-0.30517578125,0.0
14:38:29.990, -0.6220703125,0.77998046875,9.780859375,-1.8183593750000002,-0.03828125,9.58466796875,0.3662109375,1.0986328125,-0.732421875,0.1220703125,-0.06103515625,0.1220703125
14:38:30.093, -0.68427734375,0.7273437500000001,9.68994140625,-1.8662109375000002,0.04306640625,9.48896484375,-1.28173828125,1.64794921875,1.52587890625,0.06103515625,0.0,0.06103515625
14:38:30.204, -0.784765625,0.48330078125000003,9.92919921875,-1.77529296875,0.153125,9.5703125,0.1220703125,0.67138671875,-0.42724609375,0.1220703125,0.0,0.1220703125
14:38:30.314, -0.64599609375,0.66513671875,9.747363281250001,-1.894921875,0.0478515625,9.49375,2.01416015625,-1.15966796875,-1.52587890625,-0.3662109375,0.0,0.0
14:38:30.423, -0.7560546875,0.784765625,9.666015625,-1.8614257812500001,0.028710937500000002,9.599023437500001,-0.30517578125,0.6103515625,0.3662109375,0.1220703125,-0.1220703125,0.0
14:38:30.533, -0.7034179687500001,0.50244140625,9.895703125,-1.8375000000000001,0.14833984375,9.5224609375,-2.25830078125,0.30517578125,3.47900390625,0.06103515625,-0.18310546875,-0.1220703125
14:38:30.643, -0.6890625,0.61728515625,9.61337890625,-1.8087890625,0.11962890625000001,9.555957031250001,1.28173828125,-0.54931640625,-1.64794921875,-0.1220703125,-0.18310546875,0.1220703125
14:38:30.753, -0.73212890625,0.74169921875,9.819140625000001,-1.8040039062500002,0.0,9.575097656250001,0.54931640625,0.9765625,0.54931640625,0.06103515625,0.06103515625,0.0
14:38:30.863, -0.765625,0.61728515625,9.76171875,-1.8135742187500001,0.0765625,9.479394531250001,-1.89208984375,0.48828125,2.62451171875,0.0,0.0,0.0
14:38:30.973, -0.7369140625,0.44501953125000004,9.68515625,-1.83271484375,0.13398437500000002,9.555957031250001,-1.03759765625,0.30517578125,2.01416015625,0.0,0.0,0.0
14:38:31.084, -0.7034179687500001,0.6555664062500001,9.766503906250001,-1.8422851562500002,0.08134765625000001,9.589453125,0.91552734375,0.18310546875,-0.42724609375,0.0,0.0,0.0
14:38:31.194, -0.708203125,0.6029296875000001,9.718652343750001,-1.8757812500000002,0.09091796875000001,9.6181640625,-0.1220703125,-0.30517578125,1.77001953125,0.0,0.0,0.06103515625
14:38:31.304, -0.7225585937500001,0.6125,9.7138671875,-1.8853515625000001,0.07177734375,9.4458984375,-0.48828125,0.9765625,3.0517578125,0.0,-0.06103515625,0.1220703125
14:38:31.414, -0.7512695312500001,0.50244140625,9.7330078125,-1.79921875,0.10527343750000001,9.60859375,-1.0986328125,1.8310546875,2.62451171875,0.18310546875,0.0,0.0
14:38:31.524, -0.8182617187500001,0.5311523437500001,9.8095703125,-1.8183593750000002,0.10048828125,9.474609375,0.6103515625,0.6103515625,-0.244140625,-0.244140625,0.0,0.0
14:38:31.634, -0.7895507812500001,0.64599609375,9.780859375,-1.88056640625,0.052636718750000006,9.5703125,0.06103515625,0.6103515625,0.244140625,0.0,0.06103515625,0.1220703125
14:38:31.744, -0.7991210937500001,0.5598632812500001,9.704296875,-1.8518554687500002,0.11005859375,9.5416015625,-0.06103515625,0.79345703125,0.06103515625,0.0,0.0,0.0
14:38:31.855, -0.8182617187500001,0.5359375000000001,9.87177734375,-1.7657226562500001,0.11962890625000001,9.51767578125,-0.54931640625,0.42724609375,0.30517578125,0.1220703125,0.1220703125,-0.06103515625
14:38:31.964, -0.80869140625,0.6077148437500001,9.6373046875,-1.88056640625,0.10527343750000001,9.54638671875,1.708984375,0.48828125,-2.74658203125,-0.244140625,0.1220703125,-0.06103515625
14:38:32.067, -0.82783203125,0.7512695312500001,9.9244140625,-1.8040039062500002,0.11005859375,9.512890625,0.79345703125,0.30517578125,0.30517578125,-0.1220703125,0.06103515625,-0.06103515625
14:38:32.177, -0.74169921875,0.6029296875000001,9.56552734375,-1.8183593750000002,0.12919921875,9.460253906250001,-0.79345703125,-0.18310546875,1.64794921875,0.1220703125,0.1220703125,0.0
14:38:32.287, -0.80869140625,0.42587890625,9.790429687500001,-1.8853515625000001,0.12919921875,9.51767578125,-0.8544921875,1.220703125,0.06103515625,0.0,-0.06103515625,0.0
14:38:32.398, -0.8708984375000001,0.63642578125,9.8,-1.8470703125,0.052636718750000006,9.527246093750001,1.28173828125,1.46484375,-1.28173828125,0.0,0.06103515625,-0.06103515625
14:38:32.508, -0.8948242187500001,0.63642578125,9.72822265625,-1.8135742187500001,0.00478515625,9.479394531250001,0.3662109375,-0.06103515625,-0.3662109375,-0.6103515625,-0.48828125,0.0
14:38:32.618, -0.8517578125,0.6316406250000001,9.75693359375,-1.83271484375,0.04306640625,9.575097656250001,-0.48828125,0.54931640625,0.3662109375,0.48828125,0.30517578125,0.06103515625
14:38:32.728, -0.80869140625,0.5359375000000001,9.59423828125,-1.8470703125,0.09091796875000001,9.5416015625,-0.67138671875,0.6103515625,0.8544921875,0.3662109375,0.30517578125,0.06103515625
14:38:32.838, -0.9331054687500001,0.59814453125,9.78564453125,-1.83271484375,0.095703125,9.53681640625,0.30517578125,0.54931640625,-0.9765625,0.0,0.0,-0.06103515625
14:38:32.948, -0.9331054687500001,0.6507812500000001,9.70908203125,-1.8853515625000001,0.06220703125,9.479394531250001,-0.48828125,0.30517578125,0.244140625,-0.06103515625,0.0,-0.06103515625
14:38:33.058, -0.9187500000000001,0.49765625,9.723437500000001,-1.88056640625,0.09091796875000001,9.579882812500001,-0.6103515625,0.30517578125,0.732421875,0.1220703125,-0.06103515625,0.0
14:38:33.168, -0.9091796875000001,0.58857421875,9.68994140625,-1.83271484375,0.10048828125,9.503320312500001,-0.06103515625,0.18310546875,0.3662109375,0.244140625,-0.1220703125,0.06103515625
14:38:33.278, -0.9283203125,0.57421875,9.73779296875,-1.8853515625000001,0.052636718750000006,9.551171875000001,0.18310546875,0.18310546875,0.0,-0.06103515625,0.0,0.0
14:38:33.388, -0.92353515625,0.6316406250000001,9.75693359375,-1.8183593750000002,0.06699218750000001,9.512890625,-0.6103515625,0.244140625,0.79345703125,0.06103515625,0.1220703125,0.06103515625
14:38:33.498, -0.92353515625,0.5311523437500001,9.670800781250001,-1.8662109375000002,0.10048828125,9.503320312500001,-0.06103515625,0.244140625,0.244140625,-0.1220703125,0.0,0.0
14:38:33.607, -0.9570312500000001,0.5790039062500001,9.68037109375,-1.8422851562500002,0.06220703125,9.551171875000001,-0.30517578125,0.42724609375,0.06103515625,-0.06103515625,-0.06103515625,0.06103515625
14:38:33.717, -0.9426757812500001,0.54072265625,9.7521484375,-1.894921875,0.0765625,9.512890625,-0.06103515625,-0.1220703125,0.6103515625,0.0,0.0,0.0
14:38:33.828, -0.9570312500000001,0.59814453125,9.7330078125,-1.8518554687500002,0.09091796875000001,9.48896484375,-0.06103515625,0.3662109375,0.1220703125,0.0,0.0,0.0
14:38:33.938, -0.9139648437500001,0.516796875,9.7330078125,-1.87099609375,0.06699218750000001,9.508105468750001,-0.244140625,-0.244140625,0.9765625,0.0,0.0,0.0
14:38:34.048, -0.9187500000000001,0.5311523437500001,9.72822265625,-1.8183593750000002,0.04306640625,9.5416015625,-0.18310546875,0.54931640625,-0.42724609375,0.0,0.0,0.0
14:38:34.151, -1.0048828125,0.5598632812500001,9.699511718750001,-1.8757812500000002,0.0861328125,9.474609375,-0.30517578125,0.42724609375,0.732421875,0.0,0.0,0.0
14:38:34.261, -0.9474609375,0.5837890625000001,9.72822265625,-1.8375000000000001,0.06699218750000001,9.532031250000001,-0.67138671875,1.3427734375,0.42724609375,0.0,0.0,0.0
14:38:34.371, -0.97138671875,0.5359375000000001,9.68994140625,-1.8040039062500002,0.0478515625,9.5224609375,-1.28173828125,1.5869140625,0.8544921875,0.0,0.0,0.0
14:38:34.481, -1.0240234375000001,0.50244140625,9.675585937500001,-1.8375000000000001,0.028710937500000002,9.49375,-2.01416015625,2.74658203125,1.0986328125,0.0,0.0,0.0
14:38:34.590, -1.11494140625,0.40673828125000006,9.742578125000001,-1.8662109375000002,0.06699218750000001,9.512890625,-2.25830078125,1.5869140625,0.732421875,0.0,0.0,0.0
14:38:34.700, -1.1436523437500001,0.401953125,9.75693359375,-1.8183593750000002,0.057421875000000004,9.5224609375,-0.79345703125,0.244140625,0.8544921875,0.0,0.0,0.0
14:38:34.810, -1.1436523437500001,0.37324218750000004,9.70908203125,-1.8662109375000002,0.08134765625000001,9.527246093750001,0.42724609375,-0.732421875,-0.1220703125,0.0,0.0,0.0
14:38:34.920, -1.07666015625,0.44501953125000004,9.7138671875,-1.856640625,0.07177734375,9.5224609375,1.28173828125,-1.03759765625,-1.03759765625,0.0,0.0,0.0
14:38:35.029, -1.091015625,0.47373046875,9.742578125000001,-1.8518554687500002,0.0765625,9.555957031250001,1.52587890625,-1.220703125,-1.3427734375,0.0,0.0,0.0
14:38:35.140, -1.0144531250000002,0.5598632812500001,9.718652343750001,-1.8901367187500002,0.07177734375,9.4650390625,1.5869140625,-1.3427734375,-0.42724609375,0.0,0.0,0.0
14:38:35.265, -0.9283203125,0.5072265625000001,9.68037109375,-1.856640625,0.0765625,9.508105468750001,-0.18310546875,0.48828125,0.06103515625,0.0,0.0,0.0
14:38:35.375, -0.9953125,0.5263671875,9.64208984375,-1.856640625,0.07177734375,9.5224609375,-0.54931640625,1.220703125,0.3662109375,-0.30517578125,-0.18310546875,0.0
14:38:35.485, -1.00966796875,0.46894531250000004,9.7330078125,-1.856640625,0.06699218750000001,9.512890625,-0.8544921875,1.89208984375,0.91552734375,0.06103515625,0.0,0.0
14:38:35.595, -1.07666015625,0.5120117187500001,9.670800781250001,-1.8901367187500002,0.07177734375,9.512890625,-0.67138671875,2.0751953125,-0.06103515625,-0.18310546875,0.06103515625,0.1220703125
14:38:35.705, -1.07666015625,0.50244140625,9.66123046875,-1.8135742187500001,0.0478515625,9.56552734375,-1.46484375,2.5634765625,1.220703125,0.0,-0.06103515625,0.06103515625
14:38:35.815, -1.16279296875,0.401953125,9.651660156250001,-1.8757812500000002,0.1244140625,9.527246093750001,-1.3427734375,4.82177734375,0.42724609375,-0.06103515625,-0.06103515625,0.1220703125
14:38:35.924, -1.34462890625,0.3923828125,9.646875000000001,-1.9236328125000002,0.0765625,9.508105468750001,-0.30517578125,4.94384765625,-0.6103515625,-0.06103515625,0.06103515625,0.0
14:38:36.034, -1.4451171875000002,0.43066406250000006,9.742578125000001,-1.8901367187500002,0.10048828125,9.527246093750001,0.18310546875,3.173828125,-1.5869140625,-0.06103515625,-0.1220703125,0.0
14:38:36.137, -1.45947265625,0.47373046875,9.72822265625,-1.8470703125,0.06699218750000001,9.49853515625,-1.03759765625,0.54931640625,0.67138671875,-0.06103515625,0.1220703125,0.06103515625
14:38:36.247, -1.3494140625000002,0.28232421875,9.575097656250001,-1.8853515625000001,0.11005859375,9.508105468750001,-1.03759765625,0.6103515625,1.3427734375,0.06103515625,0.06103515625,0.1220703125
14:38:36.357, -1.49775390625,0.40673828125000006,9.7330078125,-1.88056640625,0.12919921875,9.5224609375,1.46484375,0.30517578125,-2.25830078125,0.0,0.0,0.0
14:38:36.467, -1.4307617187500001,0.5311523437500001,9.670800781250001,-1.8279296875000002,0.095703125,9.508105468750001,0.244140625,-1.40380859375,0.3662109375,0.0,0.0,0.0
14:38:36.577, -1.3589843750000001,0.43066406250000006,9.603808593750001,-1.8614257812500001,0.02392578125,9.575097656250001,-0.244140625,-0.9765625,1.28173828125,0.0,0.0,0.0
14:38:36.687, -1.3733398437500002,0.36367187500000003,9.6564453125,-1.8901367187500002,0.0478515625,9.5607421875,-0.6103515625,0.18310546875,0.42724609375,0.0,0.0,0.0
14:38:36.798, -1.4786132812500001,0.3541015625,9.6373046875,-1.8853515625000001,0.08134765625000001,9.551171875000001,0.3662109375,-0.244140625,-0.8544921875,0.0,0.0,0.0
14:38:36.908, -1.31591796875,0.45458984375000006,9.58466796875,-1.8518554687500002,0.057421875000000004,9.51767578125,0.732421875,-2.8076171875,-0.3662109375,0.0,0.0,0.0
14:38:37.018, -1.2728515625,0.39716796875000004,9.6373046875,-1.8087890625,0.07177734375,9.508105468750001,-0.732421875,-0.67138671875,1.28173828125,0.0,0.0,0.0
14:38:37.129, -1.3302734375,0.33974609375000003,9.704296875,-1.8757812500000002,0.10048828125,9.512890625,1.28173828125,-1.52587890625,-0.3662109375,0.0,0.0,0.0
14:38:37.239, -1.2345703125,0.516796875,9.694726562500001,-1.8470703125,0.0765625,9.532031250000001,1.8310546875,-2.38037109375,-0.8544921875,0.0,0.0,0.0
14:38:37.349, -1.2345703125,0.593359375,9.64208984375,-1.8470703125,0.028710937500000002,9.532031250000001,1.28173828125,-1.28173828125,2.3193359375,0.0,0.0,0.0
14:38:37.459, -1.25849609375,0.42587890625,9.7138671875,-1.856640625,0.0861328125,9.53681640625,-0.79345703125,-0.6103515625,4.45556640625,0.0,0.0,0.0
14:38:37.569, -1.21064453125,0.56943359375,9.723437500000001,-1.8375000000000001,0.12919921875,9.484179687500001,1.46484375,-1.3427734375,5.37109375,0.0,0.0,0.0
14:38:37.679, -1.1771484375,0.63642578125,9.747363281250001,-1.856640625,0.02392578125,9.527246093750001,1.89208984375,-2.62451171875,7.6904296875,0.0,0.0,0.0
14:38:37.789, -1.0958007812500001,0.82783203125,9.579882812500001,-1.8518554687500002,0.052636718750000006,9.551171875000001,0.67138671875,-2.5634765625,15.13671875,0.0,0.0,0.0
14:38:37.899, -1.11494140625,0.9331054687500001,9.699511718750001,-1.9140625000000002,0.08134765625000001,9.54638671875,-2.44140625,-0.6103515625,21.1181640625,0.0,0.0,0.0
14:38:38.010, -1.0144531250000002,0.6220703125,9.723437500000001,-1.8518554687500002,0.11484375000000001,9.45068359375,-0.8544921875,-1.03759765625,23.86474609375,0.0,0.0,0.0
14:38:38.112, -0.95224609375,0.28232421875,9.651660156250001,-1.8375000000000001,0.06699218750000001,9.5224609375,-3.7841796875,-1.52587890625,8.7890625,0.0,0.0,0.0
14:38:38.223, -0.9666015625000001,0.26318359375,9.555957031250001,-1.9140625000000002,0.057421875000000004,9.59423828125,-3.0517578125,4.08935546875,-5.7373046875,0.0,0.0,0.0
14:38:38.333, -1.0862304687500002,0.36845703125,9.771289062500001,-1.8614257812500001,0.095703125,9.48896484375,-2.685546875,2.9296875,-10.7421875,0.0,0.0,0.0
14:38:38.443, -1.0862304687500002,0.33974609375000003,9.704296875,-1.88056640625,0.0861328125,9.5416015625,0.9765625,0.67138671875,-11.65771484375,0.0,0.0,0.0
14:38:38.552, -1.0718750000000001,0.74169921875,9.80478515625,-1.8614257812500001,0.033496093750000004,9.54638671875,0.732421875,0.0,-8.97216796875,0.0,0.0,0.0
14:38:38.662, -0.9666015625000001,0.4498046875,9.651660156250001,-1.8757812500000002,0.08134765625000001,9.5416015625,1.220703125,0.0,-4.8828125,0.0,0.0,0.0
14:38:38.772, -1.091015625,0.5263671875,9.83349609375,-1.8375000000000001,0.172265625,9.5416015625,2.3193359375,2.62451171875,-4.8828125,0.06103515625,0.0,0.06103515625
14:38:38.882, -1.2154296875000001,0.54072265625,9.70908203125,-1.8662109375000002,0.0861328125,9.460253906250001,0.91552734375,-0.42724609375,-5.79833984375,-0.30517578125,0.0,0.0
14:38:38.991, -0.9187500000000001,0.3541015625,9.814355468750001,-3.1677734375,-0.516796875,10.776171875000001,3.2958984375,0.18310546875,-6.8359375,-7.26318359375,2.01416015625,-0.1220703125
14:38:39.101, -1.0862304687500002,0.784765625,9.91962890625,-1.9475585937500002,0.014355468750000001,10.6708984375,-5.9814453125,4.39453125,0.54931640625,-2.74658203125,-0.48828125,0.0
14:38:39.211, -1.1915039062500001,0.28232421875,9.27841796875,-2.0528320312500004,0.13876953125000002,9.048730468750001,-0.6103515625,2.5634765625,0.91552734375,0.1220703125,0.0,-0.30517578125
14:38:39.321, -1.4833984375,0.6986328125000001,10.053613281250001,-1.8470703125,0.30625,9.398046875,-0.18310546875,4.08935546875,0.8544921875,-0.06103515625,0.79345703125,0.30517578125
14:38:39.431, -1.20107421875,0.4498046875,9.5224609375,-1.9571289062500001,-0.11962890625000001,9.48896484375,0.3662109375,-2.62451171875,0.8544921875,0.0,-0.1220703125,0.0
14:38:39.540, -1.26806640625,0.6603515625,9.61337890625,-1.894921875,0.1244140625,9.37412109375,-3.41796875,2.197265625,1.28173828125,0.30517578125,0.18310546875,0.06103515625
14:38:39.650, -1.3015625000000002,0.24404296875,9.747363281250001,-1.87099609375,0.13398437500000002,9.575097656250001,-2.13623046875,4.7607421875,4.82177734375,0.06103515625,0.18310546875,-0.06103515625
14:38:39.760, -1.473828125,0.516796875,9.790429687500001,-1.8135742187500001,0.06220703125,9.503320312500001,-1.3427734375,1.3427734375,1.708984375,0.0,0.1220703125,0.0
14:38:39.870, -1.435546875,0.401953125,9.59423828125,-1.8614257812500001,0.06220703125,9.503320312500001,-3.90625,1.15966796875,4.8828125,0.06103515625,0.0,0.0
14:38:39.980, -1.4259765625,0.16748046875,9.857421875,-1.8757812500000002,0.06220703125,9.622949218750001,-3.2958984375,2.685546875,3.7841796875,0.0,0.0,0.0
14:38:40.083, -1.56953125,0.04306640625,9.68037109375,-1.8279296875000002,0.08134765625000001,9.474609375,-0.06103515625,-0.42724609375,0.18310546875,-0.06103515625,0.06103515625,-0.06103515625
14:38:40.187, -1.49775390625,0.27275390625,9.675585937500001,-1.894921875,0.057421875000000004,9.5416015625,2.50244140625,-2.5634765625,-1.52587890625,0.1220703125,0.06103515625,-0.1220703125
14:38:40.296, -1.3685546875,0.248828125,9.603808593750001,-1.95234375,0.057421875000000004,9.503320312500001,0.8544921875,-1.03759765625,-0.42724609375,-0.06103515625,0.0,-0.06103515625
14:38:40.406, -1.320703125,0.40673828125000006,9.68515625,-1.8853515625000001,0.10527343750000001,9.508105468750001,0.8544921875,-0.1220703125,-1.77001953125,0.18310546875,0.06103515625,-0.1220703125
14:38:40.516, -1.40205078125,0.3923828125,9.651660156250001,-1.8901367187500002,0.052636718750000006,9.56552734375,0.6103515625,-0.1220703125,-0.67138671875,-0.18310546875,-0.244140625,-0.1220703125
14:38:40.627, -1.4307617187500001,0.36845703125,9.72822265625,-1.8279296875000002,0.014355468750000001,9.5703125,0.42724609375,-0.54931640625,-0.54931640625,0.0,0.0,0.0
14:38:40.736, -1.3589843750000001,0.26318359375,9.68037109375,-1.8662109375000002,0.052636718750000006,9.479394531250001,-0.54931640625,-1.40380859375,-0.244140625,0.42724609375,0.3662109375,0.0
14:38:40.846, -1.3254882812500002,0.31582031250000003,9.68037109375,-1.8662109375000002,0.06220703125,9.508105468750001,2.44140625,-2.01416015625,-2.74658203125,0.0,-0.06103515625,-0.06103515625
14:38:40.956, -1.225,0.3541015625,9.694726562500001,-1.894921875,0.06699218750000001,9.53681640625,2.5634765625,-2.86865234375,-2.9296875,0.0,0.0,0.0
14:38:41.067, -1.1915039062500001,0.43544921875000003,9.54638671875,-1.894921875,0.06699218750000001,9.551171875000001,1.953125,-0.06103515625,-3.11279296875,0.0,0.1220703125,0.0
14:38:41.177, -1.2154296875000001,0.49765625,9.718652343750001,-1.8614257812500001,0.06699218750000001,9.527246093750001,1.28173828125,0.0,-2.25830078125,0.06103515625,0.1220703125,0.0
14:38:41.287, -1.26806640625,0.4880859375,9.666015625,-1.8375000000000001,0.0861328125,9.49853515625,0.8544921875,1.0986328125,-2.5634765625,-0.1220703125,0.0,-0.06103515625
14:38:41.398, -1.2728515625,0.5311523437500001,9.699511718750001,-1.87099609375,0.0765625,9.551171875000001,-0.1220703125,0.3662109375,0.244140625,0.06103515625,0.0,0.0
14:38:41.507, -1.2872070312500001,0.46416015625,9.646875000000001,-1.83271484375,0.06220703125,9.51767578125,-0.42724609375,0.8544921875,0.9765625,0.06103515625,0.0,-0.1220703125
14:38:41.617, -1.3015625000000002,0.3828125,9.651660156250001,-1.8662109375000002,0.057421875000000004,9.479394531250001,-0.06103515625,0.06103515625,-0.18310546875,0.0,0.0,0.0
14:38:41.727, -1.3015625000000002,0.47373046875,9.66123046875,-1.8662109375000002,0.057421875000000004,9.4650390625,0.42724609375,0.18310546875,-0.48828125,0.0,-0.06103515625,0.0
14:38:41.838, -1.29677734375,0.44501953125000004,9.675585937500001,-1.894921875,0.02392578125,9.53681640625,-0.1220703125,0.0,0.48828125,0.0,0.0,0.0
14:38:41.947, -1.2345703125,0.45937500000000003,9.699511718750001,-1.8518554687500002,0.0765625,9.527246093750001,-0.06103515625,-0.18310546875,0.18310546875,0.0,0.0,0.0
14:38:42.058, -1.3015625000000002,0.43544921875000003,9.7138671875,-1.8422851562500002,0.03828125,9.54638671875,0.244140625,0.48828125,0.30517578125,0.0,0.0,0.0
14:38:42.160, -1.29677734375,0.4880859375,9.666015625,-1.8901367187500002,0.06699218750000001,9.49853515625,0.30517578125,0.18310546875,-0.244140625,0.0,0.0,0.0
14:38:42.270, -1.2537109375000002,0.47851562500000006,9.58466796875,-1.8614257812500001,0.02392578125,9.503320312500001,0.06103515625,-0.48828125,0.48828125,0.0,0.0,0.0
14:38:42.380, -1.31591796875,0.40673828125000006,9.718652343750001,-1.8518554687500002,0.0478515625,9.56552734375,-0.732421875,1.5869140625,0.67138671875,0.0,0.0,0.0
14:38:42.490, -1.3350585937500001,0.401953125,9.694726562500001,-1.83271484375,0.10527343750000001,9.474609375,0.54931640625,-0.54931640625,-0.67138671875,0.0,0.0,0.0
14:38:42.600, -1.282421875,0.5311523437500001,9.53681640625,-1.9044921875,0.0765625,9.5607421875,0.732421875,-0.244140625,0.0,0.0,0.0,0.0
14:38:42.710, -1.3685546875,0.50244140625,9.747363281250001,-1.82314453125,0.033496093750000004,9.5416015625,-1.3427734375,1.28173828125,1.52587890625,0.0,0.0,0.0
14:38:42.819, -1.3350585937500001,0.4880859375,9.670800781250001,-1.8757812500000002,0.0478515625,9.512890625,0.1220703125,-1.03759765625,2.99072265625,0.0,0.0,0.0
14:38:42.929, -1.2345703125,0.56943359375,9.718652343750001,-1.8375000000000001,0.06220703125,9.527246093750001,-0.67138671875,-0.1220703125,7.14111328125,0.1220703125,0.244140625,0.18310546875
14:38:43.039, -1.2297851562500002,0.440234375,9.747363281250001,-1.8901367187500002,0.028710937500000002,9.48896484375,-0.30517578125,-1.77001953125,7.75146484375,-0.3662109375,-0.244140625,0.0
14:38:43.150, -1.244140625,0.54072265625,9.77607421875,-1.8470703125,0.052636718750000006,9.5224609375,-2.25830078125,0.30517578125,6.53076171875,0.18310546875,0.1220703125,0.06103515625
14:38:43.260, -1.17236328125,0.3349609375,9.60859375,-1.9044921875,0.057421875000000004,9.589453125,-1.5869140625,-1.220703125,4.39453125,-0.79345703125,-0.54931640625,-0.06103515625
14:38:43.370, -1.25849609375,0.40673828125000006,9.766503906250001,-1.8614257812500001,0.02392578125,9.49853515625,-1.0986328125,-0.244140625,2.197265625,0.0,-0.18310546875,0.30517578125
14:38:43.480, -1.21064453125,0.33974609375000003,9.790429687500001,-1.88056640625,0.0765625,9.479394531250001,1.03759765625,-1.46484375,-1.8310546875,-0.06103515625,0.0,-0.06103515625
14:38:43.593, -0.8661132812500001,0.46416015625,9.589453125,-1.6939453125000001,0.10527343750000001,9.44111328125,0.67138671875,-0.9765625,-0.67138671875,-0.06103515625,-0.06103515625,-0.06103515625
14:38:43.703, -1.15322265625,0.28232421875,9.675585937500001,-1.8614257812500001,0.55029296875,9.264062500000001,-0.79345703125,-1.0986328125,-0.732421875,0.54931640625,1.89208984375,-0.244140625
14:38:43.812, -1.1388671875,0.5263671875,9.699511718750001,-1.9810546875000001,0.033496093750000004,9.51767578125,4.69970703125,-0.48828125,-5.67626953125,-0.67138671875,-0.30517578125,0.18310546875
14:38:43.922, -1.091015625,0.66513671875,9.670800781250001,-1.8183593750000002,0.11005859375,9.340625000000001,-0.1220703125,-2.01416015625,-1.52587890625,0.18310546875,0.06103515625,-0.1220703125
14:38:44.032, -0.9809570312500001,0.5455078125,9.627734375000001,-1.856640625,0.0765625,9.5416015625,0.91552734375,-0.244140625,-1.40380859375,-0.91552734375,-0.42724609375,-0.18310546875
14:38:44.135, -1.1005859375,0.5263671875,9.7521484375,-1.9092773437500001,0.033496093750000004,9.599023437500001,-2.74658203125,2.01416015625,1.40380859375,0.244140625,0.0,0.1220703125
14:38:44.244, -1.15322265625,0.46894531250000004,9.7330078125,-1.8422851562500002,0.052636718750000006,9.603808593750001,3.35693359375,-0.30517578125,-4.82177734375,0.0,-0.1220703125,-0.06103515625
14:38:44.354, -1.1101562500000002,0.6507812500000001,9.670800781250001,-1.8662109375000002,0.06220703125,9.54638671875,0.18310546875,-0.91552734375,-2.01416015625,0.54931640625,0.244140625,0.18310546875
14:38:44.464, -1.1197265625000001,0.46416015625,9.7330078125,-1.8614257812500001,0.095703125,9.5416015625,0.3662109375,0.244140625,-1.5869140625,0.18310546875,-0.06103515625,0.1220703125
14:38:44.575, -1.1197265625000001,0.5598632812500001,9.63251953125,-1.83271484375,0.11484375000000001,9.579882812500001,0.48828125,0.244140625,-2.13623046875,-0.30517578125,-0.244140625,0.1220703125
14:38:44.685, -1.07666015625,0.57421875,9.6564453125,-1.8757812500000002,0.095703125,9.53681640625,0.9765625,-0.732421875,-2.74658203125,-0.06103515625,-0.06103515625,0.0
14:38:44.796, -1.1197265625000001,0.6077148437500001,9.675585937500001,-1.8422851562500002,0.028710937500000002,9.49853515625,0.0,0.9765625,-1.0986328125,0.1220703125,0.0,0.06103515625
14:38:44.905, -1.1197265625000001,0.5455078125,9.73779296875,-1.8662109375000002,0.052636718750000006,9.53681640625,0.91552734375,0.0,-1.15966796875,-0.18310546875,0.0,0.1220703125
14:38:45.016, -1.1675781250000001,0.593359375,9.747363281250001,-1.8470703125,0.10527343750000001,9.58466796875,1.220703125,-1.28173828125,-2.44140625,-0.244140625,0.06103515625,-0.06103515625
14:38:45.125, -1.1101562500000002,0.52158203125,9.88134765625,-1.8183593750000002,0.07177734375,9.527246093750001,-0.06103515625,-9.58251953125,-3.7841796875,-0.48828125,-0.18310546875,0.0
14:38:45.235, -0.97138671875,0.6555664062500001,9.59423828125,-1.8662109375000002,0.0765625,9.527246093750001,0.67138671875,-7.01904296875,-3.662109375,0.0,0.0,0.0
14:38:45.346, -0.8230468750000001,0.52158203125,9.72822265625,-1.8853515625000001,0.0765625,9.555957031250001,0.9765625,-5.9814453125,-1.77001953125,0.1220703125,0.0,0.0
14:38:45.455, -0.63642578125,0.6125,9.666015625,-1.8375000000000001,0.057421875000000004,9.5416015625,2.13623046875,-2.685546875,-1.8310546875,-0.1220703125,0.0,0.18310546875
14:38:45.565, -0.56943359375,0.6890625,9.742578125000001,-1.8997070312500002,0.06220703125,9.49375,0.3662109375,-2.685546875,-1.5869140625,0.0,0.06103515625,0.0
14:38:45.676, -0.6125,0.59814453125,9.68994140625,-1.894921875,0.08134765625000001,9.527246093750001,-1.77001953125,-3.173828125,-1.77001953125,0.0,0.0,0.0
14:38:45.785, -0.5790039062500001,0.5550781250000001,9.6373046875,-1.8662109375000002,0.10048828125,9.527246093750001,-2.50244140625,-0.732421875,-2.01416015625,0.1220703125,0.0,0.0
14:38:45.896, -0.5550781250000001,0.5837890625000001,9.7521484375,-1.8183593750000002,0.03828125,9.512890625,0.244140625,-1.15966796875,-1.40380859375,-0.06103515625,-0.06103515625,0.0
14:38:46.006, -0.48330078125000003,0.56943359375,9.73779296875,-1.9092773437500001,0.10048828125,9.5416015625,-0.79345703125,-1.52587890625,-0.18310546875,0.06103515625,0.0,0.0
14:38:46.108, -0.44501953125000004,0.5263671875,9.742578125000001,-1.8518554687500002,0.11005859375,9.503320312500001,0.244140625,-1.953125,-0.1220703125,0.0,-0.06103515625,0.0
14:38:46.218, -0.401953125,0.6555664062500001,9.7138671875,-1.9379882812500002,0.06220703125,9.60859375,0.0,-1.52587890625,-0.30517578125,0.0,0.0,0.0
14:38:46.328, -0.45937500000000003,0.5837890625000001,9.747363281250001,-1.8901367187500002,0.06220703125,9.527246093750001,-2.13623046875,0.732421875,1.220703125,0.0,0.0,0.0
14:38:46.438, -0.46416015625,0.47373046875,9.718652343750001,-1.8375000000000001,0.028710937500000002,9.51767578125,-1.953125,1.5869140625,2.13623046875,0.0,0.0,0.0
14:38:46.548, -0.48330078125000003,0.43544921875000003,9.795214843750001,-1.8997070312500002,0.095703125,9.53681640625,-2.9296875,1.28173828125,2.3193359375,0.0,0.0,0.0
14:38:46.657, -0.5311523437500001,0.34453125,9.68994140625,-1.8375000000000001,0.10048828125,9.532031250000001,-2.197265625,2.685546875,1.708984375,0.0,0.0,0.0
14:38:46.768, -0.6077148437500001,0.39716796875000004,9.843066406250001,-1.8757812500000002,0.028710937500000002,9.49853515625,0.0,1.28173828125,1.46484375,0.0,0.0,0.0
14:38:46.878, -0.5598632812500001,0.440234375,9.699511718750001,-1.8518554687500002,-0.00478515625,9.503320312500001,-0.30517578125,0.8544921875,1.3427734375,0.0,0.0,0.0
14:38:46.988, -0.6555664062500001,0.2201171875,9.68994140625,-1.894921875,0.14833984375,9.412402343750001,-1.03759765625,0.54931640625,0.54931640625,1.3427734375,0.732421875,0.0
14:38:47.098, -0.69384765625,0.33974609375000003,9.90048828125,-1.79921875,0.06220703125,9.61337890625,1.0986328125,0.9765625,-1.3427734375,-0.18310546875,-0.06103515625,-0.1220703125
14:38:47.208, -0.593359375,0.40673828125000006,9.7138671875,-1.82314453125,0.03828125,9.45068359375,2.197265625,-2.5634765625,-1.77001953125,-0.1220703125,0.0,0.0
14:38:47.318, -0.6125,0.46416015625,9.742578125000001,-1.9236328125000002,0.057421875000000004,9.551171875000001,0.18310546875,0.42724609375,-0.06103515625,-0.244140625,0.0,-0.06103515625
14:38:47.428, -0.56943359375,0.36845703125,9.771289062500001,-1.88056640625,0.019140625,9.59423828125,0.1220703125,-0.06103515625,0.18310546875,-0.244140625,0.0,0.0
14:38:47.531, -0.6316406250000001,0.36845703125,9.704296875,-1.8662109375000002,0.09091796875000001,9.455468750000001,0.6103515625,0.18310546875,0.06103515625,0.0,0.6103515625,0.1220703125
14:38:47.640, -0.593359375,0.36845703125,9.75693359375,-1.9810546875000001,0.0095703125,9.68515625,1.220703125,0.54931640625,-0.1220703125,-0.67138671875,0.0,0.0
14:38:47.750, -0.5837890625000001,0.36367187500000003,9.819140625000001,-1.9571289062500001,0.028710937500000002,9.6373046875,0.48828125,0.1220703125,-0.42724609375,0.0,0.1220703125,-0.06103515625
14:38:47.861, -0.6794921875000001,0.46894531250000004,9.627734375000001,-1.83271484375,0.07177734375,9.53681640625,2.8076171875,1.03759765625,-2.25830078125,0.18310546875,-0.06103515625,0.0
14:38:47.970, -0.7704101562500001,0.593359375,9.96748046875,-1.8662109375000002,0.019140625,9.49853515625,1.46484375,-2.01416015625,-2.74658203125,-0.06103515625,0.0,-0.06103515625
14:38:48.089, -0.708203125,0.0861328125,9.895703125,-1.8757812500000002,0.00478515625,9.49853515625,-9.46044921875,-29.6630859375,-22.0947265625,-0.1220703125,0.0,-0.06103515625
14:38:48.199, -0.019140625,0.06699218750000001,9.42197265625,-1.9092773437500001,0.08134765625000001,9.53681640625,-7.32421875,-17.02880859375,-25.08544921875,-0.06103515625,0.18310546875,0.0
14:38:48.309, 0.9139648437500001,0.3923828125,9.388476562500001,-1.82314453125,0.033496093750000004,9.5224609375,0.54931640625,-3.23486328125,-4.638671875,-0.06103515625,0.1220703125,0.0
14:38:48.420, 0.17705078125,0.401953125,9.87177734375,-1.82314453125,0.0095703125,9.503320312500001,2.0751953125,3.2958984375,-0.8544921875,-0.18310546875,0.0,0.0
14:38:48.530, 0.2583984375,0.19140625,9.857421875,-1.87099609375,-0.00478515625,9.503320312500001,1.708984375,0.6103515625,6.9580078125,0.0,-0.18310546875,0.0
14:38:48.639, 0.42587890625,0.028710937500000002,9.60859375,-1.856640625,0.095703125,9.551171875000001,1.708984375,2.0751953125,1.15966796875,0.0,0.1220703125,0.0
14:38:48.749, 0.26318359375,0.28232421875,9.91962890625,-1.856640625,0.0478515625,9.512890625,1.8310546875,1.0986328125,-0.1220703125,0.0,0.0,0.0
14:38:48.860, 0.30625,0.30146484375000004,9.747363281250001,-1.8470703125,0.028710937500000002,9.532031250000001,1.5869140625,2.86865234375,3.60107421875,0.0,0.0,0.0
14:38:48.970, 0.39716796875000004,0.33017578125,9.73779296875,-1.8470703125,0.057421875000000004,9.5224609375,1.64794921875,3.72314453125,3.84521484375,0.0,0.0,0.0
14:38:49.080, 0.31582031250000003,0.14833984375,9.63251953125,-1.8997070312500002,0.10527343750000001,9.53681640625,2.99072265625,9.21630859375,3.2958984375,0.0,0.0,0.0
14:38:49.191, -0.25361328125000004,0.1244140625,9.675585937500001,-1.9092773437500001,0.019140625,9.5416015625,-4.150390625,12.3291015625,-5.67626953125,0.0,0.0,0.0
14:38:49.301, -0.6316406250000001,0.27275390625,9.895703125,-1.8470703125,0.07177734375,9.5416015625,-2.8076171875,9.27734375,-11.474609375,0.0,0.0,0.0
14:38:49.410, -0.59814453125,0.34453125,9.857421875,-1.8135742187500001,0.04306640625,9.48896484375,0.0,2.86865234375,-9.09423828125,0.0,0.0,0.0
14:38:49.520, -0.6220703125,0.36845703125,9.83349609375,-1.8614257812500001,0.04306640625,9.5224609375,3.23486328125,-0.244140625,-8.23974609375,0.0,0.0,0.0
14:38:49.630, -0.39716796875000004,0.8374023437500001,9.957910156250001,-1.8518554687500002,-0.00478515625,9.54638671875,1.708984375,-4.2724609375,7.568359375,0.0,0.0,0.0
14:38:49.740, -0.27753906250000004,0.46416015625,9.412402343750001,-1.8518554687500002,0.08134765625000001,9.5224609375,4.94384765625,-0.91552734375,13.427734375,0.0,0.0,0.0
14:38:49.850, -0.00478515625,0.4880859375,9.436328125000001,-1.8662109375000002,0.052636718750000006,9.49853515625,3.41796875,-0.79345703125,10.009765625,0.0,0.0,0.0
14:38:49.960, -0.0765625,0.34453125,9.953125,-1.856640625,0.014355468750000001,9.54638671875,1.52587890625,4.0283203125,4.33349609375,0.0,0.0,0.0
14:38:50.078, -0.49765625,0.8326171875,9.6373046875,-1.8614257812500001,0.095703125,9.503320312500001,-1.953125,3.96728515625,4.82177734375,0.0,0.0,0.0
14:38:50.190, -0.5646484375,0.58857421875,9.75693359375,-1.87099609375,0.0861328125,9.503320312500001,0.18310546875,4.45556640625,7.32421875,0.0,0.0,0.0
14:38:50.300, -0.669921875,0.6890625,9.8,-1.8614257812500001,0.052636718750000006,9.5416015625,1.953125,-0.244140625,11.71875,0.0,0.0,0.0
14:38:50.410, -0.52158203125,0.30625,9.790429687500001,-1.8662109375000002,0.0478515625,9.51767578125,-2.74658203125,-0.3662109375,14.22119140625,0.0,0.0,0.0
14:38:50.520, -0.4498046875,-0.06699218750000001,9.666015625,-1.8901367187500002,0.07177734375,9.5224609375,-4.82177734375,3.11279296875,9.21630859375,0.0,0.0,0.0
14:38:50.630, -0.58857421875,-0.06699218750000001,9.82392578125,-1.8183593750000002,0.0861328125,9.551171875000001,0.6103515625,3.11279296875,-5.126953125,0.0,0.0,0.0
14:38:50.740, -0.57421875,0.20576171875000002,9.87177734375,-1.8422851562500002,0.057421875000000004,9.5416015625,3.60107421875,3.90625,-10.92529296875,0.0,0.0,0.0
14:38:50.850, -0.76083984375,0.36845703125,9.766503906250001,-1.856640625,0.014355468750000001,9.532031250000001,2.13623046875,4.69970703125,-11.962890625,0.0,0.0,0.0
14:38:50.960, -0.765625,0.56943359375,9.70908203125,-1.8662109375000002,0.06699218750000001,9.532031250000001,2.9296875,3.0517578125,-2.197265625,0.0,0.0,0.0
14:38:51.070, -0.85654296875,0.4498046875,9.7138671875,-1.8422851562500002,0.0765625,9.51767578125,2.5634765625,3.41796875,0.8544921875,0.0,0.0,0.0
14:38:51.179, -0.9378906250000001,0.57421875,9.8478515625,-1.8518554687500002,0.033496093750000004,9.508105468750001,-0.18310546875,1.46484375,-0.79345703125,0.0,0.0,0.0
14:38:51.290, -0.9570312500000001,0.5120117187500001,9.6373046875,-1.856640625,0.033496093750000004,9.51767578125,-1.3427734375,3.173828125,1.46484375,0.0,0.0,0.0
14:38:51.399, -0.7177734375,0.5455078125,9.771289062500001,-1.8662109375000002,0.08134765625000001,9.512890625,-0.732421875,1.28173828125,5.859375,0.0,0.0,0.0
14:38:51.510, -0.7512695312500001,0.57421875,9.4267578125,-1.8518554687500002,0.033496093750000004,9.512890625,2.685546875,6.77490234375,11.474609375,0.0,0.0,0.0
14:38:51.636, -1.00966796875,0.74169921875,9.76171875,-1.8375000000000001,0.03828125,9.508105468750001,1.77001953125,7.6904296875,16.90673828125,0.0,0.0,0.0
14:38:51.746, -1.3589843750000001,0.440234375,9.484179687500001,-1.8518554687500002,0.06699218750000001,9.527246093750001,-0.3662109375,8.7890625,17.333984375,0.0,0.0,0.0
14:38:51.856, -1.7083007812500002,0.54072265625,9.68037109375,-1.8662109375000002,0.052636718750000006,9.5416015625,-0.3662109375,11.71875,8.544921875,0.0,0.0,0.0
14:38:51.966, -1.9714843750000002,0.36845703125,9.5416015625,-1.856640625,0.04306640625,9.512890625,0.1220703125,7.9345703125,1.03759765625,0.0,0.0,0.0
14:38:52.085, -1.7465820312500002,0.7943359375000001,9.73779296875,-1.8422851562500002,0.0478515625,9.551171875000001,5.126953125,0.0,3.41796875,0.0,0.0,0.0
14:38:52.196, -1.6939453125000001,0.6603515625,9.5703125,-1.8614257812500001,0.06220703125,9.508105468750001,-0.8544921875,1.5869140625,5.126953125,0.0,0.0,0.0
14:38:52.306, -1.79921875,0.41152343750000003,9.646875000000001,-1.8375000000000001,0.057421875000000004,9.575097656250001,-2.0751953125,0.30517578125,3.662109375,0.0,0.0,0.0
14:38:52.416, -1.58388671875,0.57421875,9.460253906250001,-1.8518554687500002,0.02392578125,9.48896484375,-0.79345703125,0.1220703125,-0.48828125,0.0,0.0,0.0
14:38:52.525, -1.6604492187500002,0.8182617187500001,9.56552734375,-1.8853515625000001,0.0478515625,9.56552734375,2.38037109375,3.47900390625,0.8544921875,0.0,0.0,0.0
14:38:52.635, -1.8183593750000002,0.3828125,9.5416015625,-1.8470703125,0.03828125,9.532031250000001,-2.38037109375,3.60107421875,0.0,0.0,0.0,0.0
14:38:52.745, -1.9140625000000002,0.5790039062500001,9.56552734375,-1.8757812500000002,0.06220703125,9.551171875000001,2.38037109375,3.173828125,-4.21142578125,0.0,0.0,0.0
14:38:52.855, -2.0576171875,0.41630859375,9.532031250000001,-1.87099609375,0.06220703125,9.51767578125,-2.5634765625,5.2490234375,-13.73291015625,0.0,0.0,0.0
14:38:52.965, -1.9092773437500001,0.5263671875,9.627734375000001,-1.8087890625,0.0478515625,9.551171875000001,-3.11279296875,2.3193359375,-12.87841796875,0.0,0.0,0.0
14:38:53.075, -2.12939453125,0.8900390625000001,9.398046875,-1.8470703125,0.052636718750000006,9.5416015625,3.11279296875,0.8544921875,-1.03759765625,0.0,0.0,0.0
14:38:53.185, -2.1341796875,0.6077148437500001,9.589453125,-1.88056640625,0.03828125,9.49853515625,2.9296875,2.50244140625,3.47900390625,0.0,0.0,0.0
14:38:53.295, -2.09111328125,0.5837890625000001,9.599023437500001,-1.8518554687500002,0.06220703125,9.49375,3.41796875,1.708984375,4.8828125,0.0,0.0,0.0
14:38:53.405, -1.97626953125,0.5646484375,9.766503906250001,-1.8375000000000001,0.0478515625,9.53681640625,1.40380859375,-1.3427734375,4.69970703125,0.0,0.0,0.0
14:38:53.514, -2.2490234375,0.708203125,9.8,-1.8422851562500002,0.0478515625,9.527246093750001,3.0517578125,2.9296875,0.9765625,0.0,0.0,0.0
14:38:53.624, -2.009765625,0.6220703125,9.56552734375,-1.88056640625,0.07177734375,9.527246093750001,-0.67138671875,-0.1220703125,0.3662109375,0.0,0.0,0.0
14:38:53.734, -2.11025390625,0.6603515625,9.5416015625,-1.8422851562500002,0.04306640625,9.5416015625,1.64794921875,3.47900390625,0.42724609375,0.0,0.0,0.0
14:38:53.844, -2.2107421875,0.64599609375,9.40283203125,-1.88056640625,0.07177734375,9.5224609375,-1.220703125,1.708984375,0.42724609375,0.0,0.0,0.0
14:38:53.954, -2.27294921875,0.7225585937500001,9.670800781250001,-1.8614257812500001,0.0861328125,9.5224609375,2.8076171875,2.01416015625,-0.3662109375,0.0,0.0,0.0
14:38:54.064, -2.162890625,0.8326171875,9.479394531250001,-1.8662109375000002,0.0478515625,9.51767578125,0.79345703125,-0.06103515625,-0.1220703125,0.0,0.0,0.0
14:38:54.167, -2.201171875,0.8613281250000001,9.46982421875,-1.83271484375,0.033496093750000004,9.512890625,0.30517578125,1.220703125,-1.03759765625,0.0,0.0,0.0
14:38:54.278, -2.25380859375,0.80869140625,9.51767578125,-1.8662109375000002,0.02392578125,9.5224609375,-0.244140625,0.244140625,0.79345703125,0.0,0.0,0.0
14:38:54.388, -2.22509765625,0.74169921875,9.474609375,-1.8375000000000001,0.0478515625,9.49853515625,-1.708984375,-3.173828125,1.52587890625,0.0,0.0,0.0
14:38:54.499, -2.33037109375,1.06708984375,9.9244140625,-1.8470703125,0.06220703125,9.551171875000001,-4.94384765625,-7.4462890625,3.2958984375,0.0,0.0,0.0
14:38:54.610, -2.3351562500000003,1.12451171875,9.76171875,-1.8375000000000001,0.052636718750000006,9.512890625,-6.9580078125,-14.09912109375,15.5029296875,0.0,0.0,0.0
14:38:54.720, -1.6939453125000001,1.0144531250000002,9.460253906250001,-1.8470703125,0.06220703125,9.512890625,-15.44189453125,-15.68603515625,25.32958984375,0.0,0.0,0.0
14:38:54.830, -1.0479492187500001,0.27753906250000004,9.18271484375,-1.8375000000000001,0.02392578125,9.51767578125,-14.6484375,-3.72314453125,30.8837890625,0.0,0.0,0.0
14:38:54.939, -1.1819335937500002,-0.5790039062500001,9.83349609375,-1.8614257812500001,0.057421875000000004,9.5224609375,-4.69970703125,7.32421875,18.6767578125,0.0,0.0,0.0
14:38:55.049, -1.36376953125,-0.3923828125,9.82392578125,-1.8662109375000002,0.0478515625,9.53681640625,-2.01416015625,4.7607421875,9.1552734375,0.0,0.0,0.0
14:38:55.159, -1.6078125,0.36367187500000003,9.6564453125,-1.8614257812500001,0.0478515625,9.5224609375,-3.60107421875,-0.732421875,3.72314453125,0.0,0.0,0.0
14:38:55.269, -1.5743164062500001,0.0765625,9.63251953125,-1.8662109375000002,0.057421875000000004,9.49375,-2.5634765625,1.03759765625,9.58251953125,0.0,0.0,0.0
14:38:55.379, -1.5647460937500002,-0.18662109375000002,9.59423828125,-1.9379882812500002,0.03828125,9.527246093750001,-2.86865234375,0.91552734375,6.7138671875,0.0,0.0,0.0
14:38:55.489, -1.53603515625,-0.09091796875000001,9.70908203125,-1.8470703125,0.057421875000000004,9.551171875000001,-0.732421875,1.220703125,0.732421875,0.0,0.0,0.0
14:38:55.600, -1.5743164062500001,0.06699218750000001,9.68037109375,-1.8422851562500002,0.052636718750000006,9.527246093750001,1.03759765625,-0.6103515625,-0.8544921875,0.0,0.0,0.0
14:38:55.726, -1.5216796875,-0.12919921875,9.70908203125,-1.8901367187500002,0.03828125,9.53681640625,2.44140625,-0.3662109375,-2.5634765625,0.0,0.0,0.0
14:38:55.835, -1.5408203125000002,-0.16269531250000002,9.56552734375,-1.8662109375000002,0.0861328125,9.508105468750001,5.67626953125,0.9765625,-14.16015625,0.0,0.0,0.0
14:38:55.945, -1.5886718750000002,0.0478515625,9.70908203125,-1.856640625,0.06220703125,9.503320312500001,5.9814453125,1.40380859375,-19.10400390625,0.0,0.0,0.0
14:38:56.048, -1.68916015625,0.35888671875,9.7330078125,-1.8662109375000002,0.09091796875000001,9.5224609375,3.5400390625,3.173828125,-16.90673828125,0.0,0.0,0.0
14:38:56.151, -1.6987304687500002,0.34931640625000004,9.5224609375,-1.8422851562500002,0.0478515625,9.5607421875,1.708984375,1.3427734375,-13.73291015625,0.0,0.0,0.0
14:38:56.261, -1.7226562500000002,0.46894531250000004,9.75693359375,-1.8375000000000001,0.07177734375,9.51767578125,1.5869140625,-1.3427734375,-0.42724609375,0.0,0.0,0.0
14:38:56.372, -1.6221679687500001,0.26318359375,9.508105468750001,-1.8470703125,0.057421875000000004,9.49853515625,0.6103515625,-0.54931640625,2.25830078125,0.0,0.0,0.0
14:38:56.481, -1.6556640625,0.13876953125000002,9.718652343750001,-1.8757812500000002,0.052636718750000006,9.5224609375,-0.1220703125,1.8310546875,-0.54931640625,0.0,0.0,0.0
14:38:56.591, -1.68916015625,0.26318359375,9.49375,-1.8614257812500001,0.03828125,9.54638671875,-0.1220703125,-0.244140625,-0.244140625,0.0,0.0,0.0
14:38:56.701, -1.6939453125000001,0.13398437500000002,9.675585937500001,-1.856640625,0.0478515625,9.51767578125,-0.30517578125,0.732421875,0.0,0.0,0.0,0.0
14:38:56.811, -1.7083007812500002,0.2201171875,9.474609375,-1.8422851562500002,0.0478515625,9.527246093750001,0.1220703125,0.244140625,-1.03759765625,0.0,0.0,0.0
14:38:56.922, -1.7561523437500002,0.2009765625,9.622949218750001,-1.82314453125,0.08134765625000001,9.54638671875,0.8544921875,0.54931640625,-1.3427734375,0.0,0.0,0.0
14:38:57.033, -1.82314453125,0.19619140625,9.68037109375,-1.8375000000000001,0.03828125,9.51767578125,1.220703125,-1.28173828125,-1.46484375,0.0,0.0,0.0
14:38:57.143, -1.7705078125000002,0.153125,9.579882812500001,-1.8614257812500001,0.052636718750000006,9.48896484375,1.64794921875,-2.62451171875,-1.03759765625,0.0,0.0,0.0
14:38:57.253, -1.5982421875000001,0.19619140625,9.70908203125,-1.83271484375,0.0478515625,9.5416015625,2.62451171875,-1.64794921875,-2.86865234375,0.0,0.0,0.0
14:38:57.362, -1.53603515625,0.35888671875,9.474609375,-1.9140625000000002,0.12919921875,9.532031250000001,3.23486328125,-1.46484375,-2.8076171875,0.0,0.0,0.0
14:38:57.472, -1.6508789062500002,0.35888671875,9.742578125000001,-1.8614257812500001,0.0861328125,9.56552734375,2.44140625,2.0751953125,-1.8310546875,0.0,0.0,0.0
14:38:57.582, -1.665234375,0.39716796875000004,9.718652343750001,-1.8518554687500002,0.00478515625,9.51767578125,2.3193359375,-0.8544921875,-2.197265625,0.0,0.0,0.0
14:38:57.692, -1.6030273437500002,0.42109375000000004,9.56552734375,-1.8470703125,0.06220703125,9.54638671875,0.8544921875,1.0986328125,-1.5869140625,0.0,0.0,0.0
14:38:57.802, -1.7513671875,0.31582031250000003,9.51767578125,-1.8518554687500002,0.11484375000000001,9.53681640625,1.708984375,-11.16943359375,-1.77001953125,0.0,0.0,0.0
14:38:57.912, -1.4929687500000002,0.42109375000000004,9.436328125000001,-1.8614257812500001,0.033496093750000004,9.5607421875,1.8310546875,1.40380859375,-2.62451171875,0.0,0.0,0.0
14:38:58.022, -1.30634765625,0.44501953125000004,9.6373046875,-1.856640625,0.057421875000000004,9.53681640625,0.6103515625,-0.30517578125,-1.953125,0.0,0.0,0.0
14:38:58.125, -1.4833984375,0.55029296875,9.512890625,-1.8422851562500002,0.06220703125,9.49853515625,-0.3662109375,2.01416015625,0.3662109375,0.0,0.0,0.0
14:38:58.235, -1.665234375,0.5598632812500001,9.814355468750001,-1.82314453125,0.033496093750000004,9.5224609375,-0.3662109375,0.6103515625,3.47900390625,0.0,0.0,0.0
14:38:58.346, -1.56953125,0.5311523437500001,9.72822265625,-1.8662109375000002,0.00478515625,9.508105468750001,-7.568359375,1.220703125,10.7421875,0.0,0.0,0.0
14:38:58.456, -1.49775390625,0.31103515625,9.666015625,-1.8518554687500002,0.0765625,9.508105468750001,-7.8125,0.79345703125,9.09423828125,0.0,0.0,0.0
14:38:58.566, -1.53125,0.0478515625,9.68037109375,-1.8040039062500002,0.028710937500000002,9.532031250000001,-8.23974609375,2.685546875,5.92041015625,0.0,0.0,0.0
14:38:58.676, -1.665234375,-0.2201171875,9.68037109375,-1.8757812500000002,0.052636718750000006,9.49853515625,-0.91552734375,2.9296875,-0.48828125,0.0,0.0,0.0
14:38:58.786, -1.8662109375000002,-0.0478515625,9.795214843750001,-1.8662109375000002,0.019140625,9.5224609375,3.0517578125,-0.06103515625,-1.64794921875,0.0,0.0,0.0
14:38:58.896, -1.53603515625,0.0478515625,9.4267578125,-1.8375000000000001,0.0478515625,9.59423828125,7.38525390625,-1.89208984375,-2.74658203125,0.0,0.0,0.0
14:38:59.006, -1.4690429687500002,0.3828125,9.6373046875,-1.9140625000000002,0.04306640625,9.503320312500001,8.60595703125,7.32421875,-8.60595703125,0.0,0.0,0.0
14:38:59.116, -1.8183593750000002,0.26318359375,9.64208984375,-1.8183593750000002,0.11484375000000001,9.49853515625,9.82666015625,9.8876953125,-9.33837890625,0.0,0.0,0.0
14:38:59.227, -2.0241210937500003,0.593359375,9.61337890625,-1.856640625,-0.014355468750000001,9.508105468750001,4.69970703125,-0.30517578125,-7.32421875,0.0,0.0,0.0
14:38:59.336, -2.0241210937500003,0.36367187500000003,9.551171875000001,-1.83271484375,0.03828125,9.512890625,0.9765625,0.48828125,-3.173828125,0.0,0.0,0.0
14:38:59.446, -1.9714843750000002,0.42109375000000004,9.75693359375,-1.8470703125,0.0765625,9.579882812500001,-0.54931640625,-0.79345703125,-2.0751953125,0.0,0.0,0.0
14:38:59.556, -1.8518554687500002,0.22490234375,9.49375,-1.8997070312500002,0.052636718750000006,9.5607421875,0.79345703125,0.0,-2.9296875,0.0,0.0,0.0
14:38:59.666, -2.0576171875,0.43544921875000003,9.4458984375,-1.83271484375,0.014355468750000001,9.54638671875,2.13623046875,6.53076171875,-4.7607421875,0.0,0.0,0.0
14:38:59.776, -2.1533203125,0.7273437500000001,9.436328125000001,-1.8422851562500002,0.09091796875000001,9.49375,-0.67138671875,4.39453125,-2.74658203125,0.0,0.0,0.0
14:38:59.886, -2.1485351562500004,0.3828125,9.484179687500001,-1.8853515625000001,0.06699218750000001,9.5607421875,-0.48828125,1.3427734375,1.3427734375,0.0,0.0,0.0
14:38:59.996, -2.20595703125,0.36845703125,9.46982421875,-1.8662109375000002,0.0478515625,9.53681640625,0.244140625,3.23486328125,-0.8544921875,0.0,0.0,0.0
14:39:00.099, -2.4069335937500003,0.49287109375000004,9.455468750000001,-1.8518554687500002,0.02392578125,9.551171875000001,-0.42724609375,2.685546875,-0.18310546875,0.0,0.0,0.0
14:39:00.209, -2.39736328125,0.47851562500000006,9.460253906250001,-1.8422851562500002,0.06699218750000001,9.503320312500001,-0.48828125,1.708984375,0.6103515625,0.0,0.0,0.0
14:39:00.319, -2.32080078125,0.2966796875,9.455468750000001,-1.8470703125,0.04306640625,9.4650390625,0.3662109375,1.40380859375,-0.8544921875,0.0,0.0,0.0
14:39:00.429, -2.34951171875,0.4880859375,9.4458984375,-1.87099609375,0.033496093750000004,9.5224609375,1.0986328125,0.9765625,-0.8544921875,0.0,0.0,0.0
14:39:00.538, -2.3734375,0.42109375000000004,9.59423828125,-1.8422851562500002,0.057421875000000004,9.5416015625,0.0,0.54931640625,0.18310546875,0.0,0.0,0.0
14:39:00.648, -2.37822265625,0.40673828125000006,9.512890625,-1.8375000000000001,0.04306640625,9.51767578125,0.91552734375,-0.3662109375,-0.6103515625,0.0,0.0,0.0
14:39:00.758, -2.3638671875000004,0.55029296875,9.436328125000001,-1.8614257812500001,0.06220703125,9.49853515625,0.3662109375,-0.30517578125,-0.42724609375,0.0,0.0,0.0
14:39:00.868, -2.3590820312500003,0.45937500000000003,9.6564453125,-1.8040039062500002,0.052636718750000006,9.551171875000001,-0.3662109375,-0.6103515625,-0.67138671875,0.0,0.0,0.0
14:39:00.977, -2.3734375,0.47851562500000006,9.579882812500001,-1.9140625000000002,0.09091796875000001,9.508105468750001,-0.1220703125,-0.1220703125,-0.06103515625,0.0,-0.18310546875,0.06103515625
14:39:01.087, -2.4212890625,0.47373046875,9.42197265625,-1.8279296875000002,0.033496093750000004,9.4650390625,0.48828125,-2.44140625,1.0986328125,-0.06103515625,-0.06103515625,-0.06103515625
14:39:01.197, -2.28251953125,0.5072265625000001,9.4171875,-1.894921875,0.052636718750000006,9.56552734375,-0.06103515625,-2.38037109375,2.13623046875,0.0,-0.06103515625,0.0
14:39:01.307, -2.23466796875,0.41630859375,9.398046875,-1.8375000000000001,0.052636718750000006,9.5224609375,-1.0986328125,0.54931640625,2.50244140625,0.0,-0.244140625,0.0
14:39:01.417, -2.3064453125,0.401953125,9.48896484375,-1.88056640625,0.08134765625000001,9.484179687500001,-0.18310546875,-0.244140625,-0.30517578125,0.1220703125,0.0,-0.1220703125
14:39:01.527, -2.33037109375,0.46894531250000004,9.39326171875,-1.8470703125,0.057421875000000004,9.575097656250001,0.06103515625,0.06103515625,-0.06103515625,-0.06103515625,0.0,0.0
14:39:01.637, -2.2920898437500004,0.45458984375000006,9.4267578125,-1.8662109375000002,0.06699218750000001,9.503320312500001,-0.18310546875,0.3662109375,0.0,0.0,0.06103515625,-0.06103515625
14:39:01.747, -2.32080078125,0.41152343750000003,9.527246093750001,-1.8422851562500002,0.0478515625,9.49853515625,-0.06103515625,0.42724609375,-0.06103515625,-0.06103515625,-0.1220703125,-0.06103515625
14:39:01.857, -2.27294921875,0.42109375000000004,9.40283203125,-1.88056640625,0.0478515625,9.51767578125,0.244140625,0.06103515625,0.0,-0.06103515625,0.0,-0.06103515625
14:39:01.967, -2.3112304687500003,0.45937500000000003,9.4171875,-1.83271484375,0.057421875000000004,9.51767578125,-0.54931640625,1.46484375,-0.1220703125,0.0,0.0,0.0
14:39:02.086, -2.34951171875,0.38759765625000003,9.474609375,-1.8614257812500001,0.06220703125,9.53681640625,-0.18310546875,0.06103515625,0.18310546875,0.0,0.0,0.0
14:39:02.196, -2.34951171875,0.42109375000000004,9.474609375,-1.8662109375000002,0.0861328125,9.51767578125,0.3662109375,0.06103515625,0.0,0.0,0.0,0.0
14:39:02.306, -2.354296875,0.47851562500000006,9.436328125000001,-1.82314453125,0.04306640625,9.532031250000001,0.1220703125,0.0,0.06103515625,0.0,0.0,0.0
14:39:02.416, -2.3255859375,0.43544921875000003,9.4267578125,-1.8757812500000002,0.057421875000000004,9.508105468750001,-0.6103515625,0.06103515625,1.03759765625,0.0,0.0,0.0
14:39:02.542, -2.4069335937500003,0.34453125,9.48896484375,-1.8375000000000001,0.06220703125,9.51767578125,-0.1220703125,0.67138671875,-0.48828125,0.0,0.0,0.0
14:39:02.653, -2.4021484375,0.3923828125,9.503320312500001,-1.8518554687500002,0.0478515625,9.555957031250001,1.28173828125,-1.28173828125,-0.79345703125,0.0,0.0,0.0
14:39:02.763, -2.27294921875,0.45937500000000003,9.474609375,-1.8757812500000002,0.057421875000000004,9.5416015625,0.30517578125,-0.732421875,0.0,0.0,0.0,0.0
14:39:02.873, -2.4069335937500003,0.38759765625000003,9.4267578125,-1.8518554687500002,0.057421875000000004,9.49853515625,-0.54931640625,1.0986328125,0.3662109375,0.0,0.0,0.0
14:39:02.982, -2.3638671875000004,0.3923828125,9.46982421875,-1.87099609375,0.033496093750000004,9.5416015625,0.3662109375,-0.244140625,-0.54931640625,0.0,0.0,0.0
14:39:03.093, -2.3399414062500004,0.45937500000000003,9.4267578125,-1.9140625000000002,0.09091796875000001,9.575097656250001,0.1220703125,-0.48828125,0.67138671875,0.0,0.0,0.0
14:39:03.203, -2.3112304687500003,0.36845703125,9.474609375,-1.8662109375000002,0.06220703125,9.479394531250001,0.06103515625,0.1220703125,0.0,0.0,0.0,0.0
14:39:03.313, -2.3734375,0.42587890625,9.455468750000001,-1.8279296875000002,0.07177734375,9.508105468750001,0.3662109375,0.06103515625,-0.244140625,0.0,0.0,0.0
14:39:03.423, -2.3399414062500004,0.45937500000000003,9.532031250000001,-1.8614257812500001,0.03828125,9.551171875000001,0.0,-0.06103515625,-0.42724609375,0.0,0.0,0.0
14:39:03.532, -2.33037109375,0.3923828125,9.49375,-1.8662109375000002,0.10048828125,9.48896484375,-0.42724609375,-0.54931640625,0.79345703125,0.0,0.0,0.0
14:39:03.642, -2.3160156250000004,0.28232421875,9.4267578125,-1.8853515625000001,0.07177734375,9.53681640625,-0.244140625,-2.01416015625,-3.2958984375,0.0,0.0,0.0
14:39:03.752, -2.28251953125,0.5646484375,9.579882812500001,-1.8375000000000001,0.04306640625,9.551171875000001,2.50244140625,-2.5634765625,-5.859375,0.0,0.0,0.0
14:39:03.863, -2.2442382812500004,0.47373046875,9.622949218750001,-1.8375000000000001,0.10048828125,9.503320312500001,-0.54931640625,-2.8076171875,1.52587890625,0.0,0.0,0.0
14:39:03.973, -2.20595703125,0.23447265625000002,9.49375,-1.8997070312500002,0.057421875000000004,9.508105468750001,-0.6103515625,-7.26318359375,-0.3662109375,0.0,0.0,0.0
14:39:04.076, -1.9619140625000002,0.14833984375,9.80478515625,-1.82314453125,0.033496093750000004,9.579882812500001,1.52587890625,-10.19287109375,-6.16455078125,0.0,0.0,0.0
14:39:04.186, -1.6078125,0.26796875000000003,9.92919921875,-1.8422851562500002,0.08134765625000001,9.532031250000001,-0.732421875,-17.578125,-11.90185546875,0.0,0.0,0.0
14:39:04.296, -1.2728515625,0.6794921875000001,9.2544921875,-1.8853515625000001,0.06220703125,9.503320312500001,2.13623046875,-5.79833984375,-7.87353515625,0.0,0.0,0.0
14:39:04.406, -1.473828125,0.7177734375,9.551171875000001,-1.8757812500000002,0.033496093750000004,9.512890625,0.8544921875,2.50244140625,1.28173828125,0.0,0.0,0.0
14:39:04.516, -1.2919921875,0.41630859375,10.02490234375,-1.88056640625,0.02392578125,9.5416015625,-4.638671875,-5.31005859375,6.34765625,0.0,0.0,0.0
14:39:04.626, -1.41162109375,0.43066406250000006,9.120507812500001,-1.8518554687500002,0.06699218750000001,9.474609375,-0.18310546875,0.244140625,6.77490234375,0.0,0.0,0.0
14:39:04.735, -1.7657226562500001,0.34931640625000004,9.206640625,-1.8135742187500001,0.07177734375,9.54638671875,1.15966796875,11.474609375,2.8076171875,0.244140625,0.30517578125,0.06103515625
14:39:04.845, -2.1150390625,0.5311523437500001,9.68994140625,-1.8518554687500002,0.0478515625,9.51767578125,1.28173828125,12.20703125,-2.62451171875,0.06103515625,0.0,0.0
14:39:04.955, -2.15810546875,0.5072265625000001,9.83349609375,-1.8662109375000002,0.06699218750000001,9.54638671875,-2.3193359375,2.5634765625,-0.48828125,-0.1220703125,0.0,0.06103515625
14:39:05.065, -2.086328125,0.30146484375000004,9.7138671875,-1.8614257812500001,0.033496093750000004,9.512890625,-1.77001953125,1.64794921875,1.15966796875,0.30517578125,0.06103515625,0.06103515625
14:39:05.176, -2.0528320312500004,0.38759765625000003,9.532031250000001,-1.8614257812500001,0.10048828125,9.527246093750001,0.8544921875,-2.38037109375,1.77001953125,0.0,-0.18310546875,0.18310546875
14:39:05.286, -2.01455078125,0.38759765625000003,9.46982421875,-1.894921875,0.04306640625,9.5224609375,1.28173828125,1.77001953125,3.72314453125,0.0,-0.06103515625,0.0
14:39:05.396, -2.1006835937500004,0.3923828125,9.54638671875,-1.87099609375,0.014355468750000001,9.49853515625,0.0,2.74658203125,2.99072265625,-0.06103515625,0.0,0.0
14:39:05.505, -2.086328125,0.3923828125,9.5703125,-1.82314453125,0.08134765625000001,9.512890625,-1.15966796875,0.6103515625,1.64794921875,0.18310546875,0.18310546875,0.0
14:39:05.616, -2.1246093750000004,0.40673828125000006,9.64208984375,-1.8757812500000002,0.0478515625,9.5224609375,0.0,0.0,-0.79345703125,0.0,-0.1220703125,0.0
14:39:05.726, -2.13896484375,0.43544921875000003,9.589453125,-1.8518554687500002,0.02392578125,9.54638671875,-0.06103515625,-1.52587890625,-0.30517578125,0.0,0.0,0.0
14:39:05.845, -2.0289062500000004,0.43066406250000006,9.479394531250001,-1.8422851562500002,0.04306640625,9.532031250000001,0.48828125,0.1220703125,0.79345703125,0.0,0.0,0.0
14:39:05.954, -2.0289062500000004,0.57421875,9.5416015625,-1.8518554687500002,0.06220703125,9.503320312500001,0.06103515625,0.18310546875,-0.732421875,0.0,0.0,0.0
14:39:06.065, -2.0289062500000004,0.48330078125000003,9.436328125000001,-1.894921875,0.08134765625000001,9.49853515625,-0.3662109375,0.8544921875,1.89208984375,0.0,0.0,0.0
14:39:06.168, -2.0958984375000003,0.42587890625,9.54638671875,-1.8614257812500001,0.057421875000000004,9.54638671875,-1.3427734375,1.15966796875,2.74658203125,0.0,0.0,0.0
14:39:06.278, -2.1006835937500004,0.43544921875000003,9.622949218750001,-1.88056640625,0.07177734375,9.551171875000001,-0.244140625,0.3662109375,2.38037109375,0.0,0.0,0.0
14:39:06.387, -2.1341796875,0.41152343750000003,9.5607421875,-1.8757812500000002,0.03828125,9.45068359375,-0.91552734375,-0.8544921875,2.44140625,0.0,0.0,0.0
14:39:06.497, -2.12939453125,0.36845703125,9.5416015625,-1.8183593750000002,0.095703125,9.508105468750001,0.06103515625,-0.79345703125,1.5869140625,0.0,0.0,0.0
14:39:06.624, -2.1006835937500004,0.39716796875000004,9.49853515625,-1.8757812500000002,0.033496093750000004,9.51767578125,0.1220703125,-0.732421875,-1.03759765625,0.0,0.0,0.0
14:39:06.734, -2.0576171875,0.46416015625,9.46982421875,-1.8901367187500002,0.0861328125,9.555957031250001,-0.30517578125,0.06103515625,-1.220703125,0.0,0.0,0.0
14:39:06.846, -2.0289062500000004,0.38759765625000003,9.575097656250001,-1.8614257812500001,0.0861328125,9.5416015625,-0.79345703125,-0.30517578125,1.03759765625,0.0,0.0,0.0
14:39:06.950, -2.0001953125000003,0.37802734375,9.51767578125,-1.8662109375000002,0.06699218750000001,9.46982421875,0.54931640625,-0.732421875,1.28173828125,0.0,0.0,0.0
14:39:07.060, -2.0719726562500003,0.41630859375,9.579882812500001,-1.79921875,0.08134765625000001,9.54638671875,-0.732421875,1.5869140625,0.244140625,0.0,0.0,0.0
14:39:07.170, -2.1341796875,0.36367187500000003,9.56552734375,-1.8470703125,0.04306640625,9.5416015625,0.0,0.30517578125,0.3662109375,0.0,0.0,0.0
14:39:07.280, -2.25380859375,0.43066406250000006,9.474609375,-1.856640625,0.033496093750000004,9.508105468750001,0.732421875,1.03759765625,0.0,0.0,0.0,0.0
14:39:07.390, -2.5983398437500003,0.4498046875,9.92919921875,-1.8662109375000002,0.06220703125,9.508105468750001,-2.8076171875,-6.16455078125,-2.8076171875,0.0,0.0,0.0
14:39:07.500, -2.0384765625,0.13398437500000002,9.914843750000001,-1.8662109375000002,0.06220703125,9.575097656250001,-9.33837890625,-9.94873046875,-3.23486328125,0.0,0.0,0.0
14:39:07.610, -1.2728515625,0.1435546875,9.2544921875,-1.894921875,0.1244140625,9.532031250000001,-14.892578125,-30.70068359375,-8.056640625,0.0,0.0,0.0
14:39:07.720, -0.36367187500000003,-0.14833984375,9.053515625000001,-1.88056640625,0.02392578125,9.5416015625,-1.03759765625,-8.97216796875,1.15966796875,0.0,0.0,0.0
14:39:07.830, -0.54072265625,-0.0765625,9.48896484375,-1.8470703125,0.033496093750000004,9.4650390625,6.04248046875,7.568359375,6.89697265625,0.0,0.0,0.0
14:39:07.941, -1.0240234375000001,-0.11484375000000001,9.479394531250001,-1.87099609375,0.052636718750000006,9.551171875000001,-2.0751953125,4.2724609375,0.91552734375,0.0,0.0,0.0
14:39:08.051, -1.4546875000000001,0.057421875000000004,9.986621093750001,-1.8901367187500002,0.06699218750000001,9.5607421875,0.30517578125,-3.173828125,1.77001953125,0.0,0.0,0.0
14:39:08.154, -1.56953125,-0.17705078125,9.9244140625,-1.87099609375,0.06699218750000001,9.5416015625,2.38037109375,-7.32421875,2.0751953125,0.0,0.0,0.0
14:39:08.264, -1.1101562500000002,-0.11484375000000001,9.7138671875,-1.79921875,0.0765625,9.53681640625,-2.99072265625,-16.4794921875,-5.31005859375,0.0,0.0,0.0
14:39:08.374, -0.43544921875000003,-0.09091796875000001,9.0630859375,-1.8183593750000002,0.06220703125,9.53681640625,3.7841796875,1.220703125,-6.9580078125,0.0,0.0,0.0
14:39:08.484, -0.6220703125,0.2201171875,10.8048828125,-1.82314453125,0.02392578125,9.527246093750001,1.708984375,-12.5732421875,-2.9296875,0.0,0.0,0.0
14:39:08.595, -0.16269531250000002,0.17705078125,8.86689453125,-1.8901367187500002,0.0478515625,9.512890625,2.5634765625,7.14111328125,0.91552734375,0.0,0.0,0.0
14:39:08.698, -0.58857421875,0.29189453125000003,11.580078125,-1.856640625,0.0765625,9.5224609375,0.42724609375,0.30517578125,4.69970703125,0.0,0.0,0.0
14:39:08.808, -0.16748046875,0.052636718750000006,9.197070312500001,-1.82314453125,0.04306640625,9.5416015625,4.21142578125,-31.92138671875,13.24462890625,0.0,0.0,0.0
14:39:08.918, 0.4880859375,-0.028710937500000002,7.9146484375,-1.79921875,0.04306640625,9.431542968750001,5.43212890625,-12.939453125,12.451171875,0.0,0.0,0.0
14:39:09.027, 0.34931640625000004,-0.153125,7.675390625,-1.8518554687500002,0.11005859375,9.5607421875,2.0751953125,31.005859375,4.638671875,0.0,0.0,0.0
14:39:09.138, -0.8613281250000001,0.057421875000000004,10.546484375,-1.8279296875000002,0.06220703125,9.51767578125,-4.7607421875,-5.7373046875,1.3427734375,0.0,0.0,0.0
14:39:09.248, -0.54072265625,0.26318359375,9.7138671875,-1.8757812500000002,0.0765625,9.5224609375,-8.9111328125,4.08935546875,-0.42724609375,0.0,0.0,0.0
14:39:09.358, -0.5550781250000001,-0.0478515625,9.005664062500001,-1.856640625,0.06220703125,9.508105468750001,-14.6484375,9.70458984375,6.4697265625,0.0,0.0,0.0
14:39:09.468, -1.0814453125,-0.8182617187500001,10.154101562500001,-1.87099609375,0.0478515625,9.53681640625,-10.19287109375,11.16943359375,6.28662109375,0.0,0.0,0.0
14:39:09.578, -0.784765625,-0.55029296875,10.3263671875,-1.87099609375,0.0861328125,9.512890625,2.01416015625,-3.2958984375,-0.42724609375,0.0,0.0,0.0
14:39:09.688, -0.7034179687500001,-0.43544921875000003,9.091796875,-1.8757812500000002,0.06220703125,9.49853515625,7.080078125,3.84521484375,4.638671875,0.0,0.0,0.0
14:39:09.798, -0.8613281250000001,-0.29189453125000003,9.790429687500001,-1.8375000000000001,0.057421875000000004,9.48896484375,7.50732421875,9.33837890625,1.15966796875,0.0,0.0,0.0
14:39:09.908, -0.97138671875,-0.26318359375,9.66123046875,-1.87099609375,0.06699218750000001,9.5224609375,-3.0517578125,1.953125,-2.38037109375,0.0,0.0,0.0
14:39:10.017, -0.976171875,-0.31103515625,9.747363281250001,-1.9044921875,0.06699218750000001,9.503320312500001,2.5634765625,1.708984375,3.5400390625,0.0,0.0,0.0
14:39:10.120, -1.0240234375000001,-0.35888671875,9.651660156250001,-1.894921875,0.08134765625000001,9.5224609375,2.01416015625,1.8310546875,2.0751953125,0.0,0.0,0.0
14:39:10.230, -1.0240234375000001,-0.22490234375,9.718652343750001,-1.856640625,0.04306640625,9.48896484375,2.25830078125,1.77001953125,0.732421875,0.0,0.0,0.0
14:39:10.340, -1.1005859375,-0.2201171875,9.77607421875,-1.8470703125,0.03828125,9.5416015625,3.11279296875,1.46484375,0.3662109375,0.0,0.0,0.0
14:39:10.450, -1.12451171875,-0.23925781250000003,9.66123046875,-1.88056640625,0.057421875000000004,9.532031250000001,-0.67138671875,0.0,-2.3193359375,0.0,0.0,0.0
14:39:10.555, -1.1197265625000001,-0.07177734375,9.8,-1.856640625,0.019140625,9.484179687500001,2.9296875,-4.33349609375,-5.43212890625,0.0,0.0,0.0
14:39:10.667, -0.899609375,-0.06699218750000001,9.599023437500001,-1.8518554687500002,0.0765625,9.48896484375,2.5634765625,-2.62451171875,-2.685546875,0.0,0.0,0.0
14:39:10.771, -0.8900390625000001,-0.11005859375,9.77607421875,-1.8757812500000002,0.06220703125,9.48896484375,1.03759765625,-1.40380859375,-2.50244140625,0.0,0.0,0.0
14:39:10.881, -0.8517578125,-0.033496093750000004,9.742578125000001,-1.83271484375,0.03828125,9.527246093750001,1.15966796875,-0.3662109375,-4.21142578125,0.0,0.0,0.0
14:39:10.991, -0.90439453125,-0.0095703125,9.666015625,-1.894921875,0.0478515625,9.53681640625,0.48828125,1.40380859375,-4.8828125,0.0,0.0,0.0
14:39:11.102, -0.95224609375,0.014355468750000001,9.8287109375,-1.8470703125,0.09091796875000001,9.532031250000001,-1.0986328125,0.0,-4.2724609375,0.0,0.0,0.0
14:39:11.212, -0.9283203125,-0.028710937500000002,9.78564453125,-1.8757812500000002,0.06699218750000001,9.4458984375,0.30517578125,-0.3662109375,-2.99072265625,0.0,0.0,0.0
14:39:11.322, -0.8326171875,0.0478515625,9.8095703125,-1.8375000000000001,0.06699218750000001,9.555957031250001,0.732421875,0.42724609375,-0.42724609375,0.0,0.0,0.0
14:39:11.431, -0.8134765625000001,-0.13876953125000002,9.68515625,-1.8662109375000002,0.0478515625,9.527246093750001,-1.8310546875,3.90625,0.06103515625,0.0,0.0,0.0
14:39:11.541, -1.1197265625000001,-0.25361328125000004,10.010546875000001,-1.8470703125,0.033496093750000004,9.512890625,-1.0986328125,2.62451171875,-4.7607421875,0.0,0.0,0.0
14:39:11.651, -1.1197265625000001,0.0,9.599023437500001,-1.82314453125,0.019140625,9.575097656250001,4.0283203125,1.46484375,-6.16455078125,0.0,0.0,0.0
14:39:11.756, -1.0814453125,0.13876953125000002,9.85263671875,-1.856640625,0.028710937500000002,9.51767578125,2.44140625,-2.38037109375,-2.44140625,0.0,0.0,0.0
14:39:11.866, -1.0240234375000001,0.0478515625,9.42197265625,-1.8470703125,0.0861328125,9.527246093750001,0.91552734375,0.3662109375,1.52587890625,0.0,0.0,0.0
14:39:11.977, -1.0862304687500002,-0.057421875000000004,9.7330078125,-1.8614257812500001,0.07177734375,9.5703125,-1.46484375,4.2724609375,3.72314453125,0.0,0.0,0.0
14:39:12.079, -1.225,-0.20576171875000002,9.70908203125,-1.8901367187500002,0.07177734375,9.53681640625,0.30517578125,5.4931640625,0.79345703125,0.0,0.0,0.0
14:39:12.189, -1.3685546875,0.028710937500000002,9.8095703125,-1.856640625,0.0478515625,9.5416015625,3.11279296875,0.732421875,-3.84521484375,0.0,0.0,0.0
14:39:12.301, -1.2537109375000002,0.16269531250000002,9.398046875,-1.8422851562500002,0.04306640625,9.5416015625,0.6103515625,3.662109375,1.77001953125,0.0,0.0,0.0
14:39:12.411, -1.4307617187500001,-0.028710937500000002,9.80478515625,-1.8757812500000002,0.028710937500000002,9.48896484375,0.732421875,1.220703125,0.48828125,0.0,0.0,0.0
14:39:12.521, -1.3254882812500002,-0.00478515625,9.704296875,-1.8375000000000001,0.08134765625000001,9.503320312500001,0.54931640625,-0.244140625,-2.86865234375,0.0,0.0,0.0
14:39:12.631, -1.26806640625,-0.019140625,9.61337890625,-1.88056640625,0.04306640625,9.5607421875,2.50244140625,-0.18310546875,0.54931640625,0.0,0.0,0.0
14:39:12.733, -1.2345703125,0.15791015625000002,9.527246093750001,-1.8518554687500002,0.07177734375,9.555957031250001,0.8544921875,-1.8310546875,-2.25830078125,0.0,0.0,0.0
14:39:12.843, -1.282421875,0.19140625,9.819140625000001,-1.8662109375000002,0.057421875000000004,9.527246093750001,1.5869140625,0.79345703125,-2.74658203125,0.0,0.0,0.0
14:39:12.953, -1.2345703125,0.20576171875000002,9.646875000000001,-1.8422851562500002,0.033496093750000004,9.589453125,0.30517578125,-0.3662109375,-1.708984375,0.0,0.0,0.0
14:39:13.064, -1.35419921875,0.26318359375,9.771289062500001,-1.856640625,0.0861328125,9.479394531250001,1.953125,2.13623046875,1.40380859375,0.0,0.0,0.0
14:39:13.173, -1.1675781250000001,0.22490234375,9.704296875,-1.8757812500000002,0.0478515625,9.551171875000001,0.8544921875,-2.38037109375,0.79345703125,0.0,0.0,0.0
14:39:13.283, -1.26806640625,0.2583984375,9.70908203125,-1.8901367187500002,0.0,9.555957031250001,-1.15966796875,1.15966796875,-0.732421875,0.0,0.0,0.0
14:39:13.393, -1.3350585937500001,0.13398437500000002,9.814355468750001,-1.856640625,0.11962890625000001,9.49375,0.06103515625,0.6103515625,1.220703125,0.0,0.0,0.0
14:39:13.503, -1.282421875,0.18662109375000002,9.59423828125,-1.5982421875000001,-0.2009765625,9.173144531250001,0.8544921875,-0.42724609375,-1.89208984375,1.8310546875,-0.91552734375,0.0
14:39:13.615, -1.24892578125,0.32539062500000004,9.675585937500001,-1.5503906250000001,0.14833984375,9.005664062500001,1.77001953125,0.732421875,-1.77001953125,0.9765625,0.0,0.0
14:39:13.717, -1.25849609375,0.287109375,9.6564453125,-2.06240234375,0.0,9.53681640625,-0.30517578125,-0.54931640625,1.03759765625,-0.42724609375,0.06103515625,0.06103515625
14:39:13.831, -1.44990234375,0.014355468750000001,9.76171875,-1.87099609375,0.16269531250000002,9.575097656250001,-4.45556640625,4.7607421875,3.0517578125,-0.06103515625,0.0,0.06103515625
14:39:13.941, -1.4690429687500002,0.10048828125,9.670800781250001,-1.8135742187500001,0.02392578125,9.49375,4.150390625,-0.91552734375,-2.99072265625,0.0,-0.06103515625,0.06103515625
14:39:14.051, -1.320703125,0.5120117187500001,9.589453125,-1.83271484375,0.0095703125,9.54638671875,1.77001953125,0.732421875,-0.48828125,-0.06103515625,-0.06103515625,0.0
14:39:14.154, -1.4307617187500001,0.32539062500000004,9.532031250000001,-1.8757812500000002,0.0765625,9.599023437500001,-2.5634765625,3.11279296875,2.9296875,0.0,0.0,0.0
14:39:14.264, -1.5025390625000001,0.1244140625,9.666015625,-1.8518554687500002,0.11005859375,9.484179687500001,-0.8544921875,3.96728515625,1.8310546875,0.06103515625,-0.18310546875,0.0
14:39:14.374, -1.5647460937500002,0.25361328125000004,9.75693359375,-1.87099609375,0.033496093750000004,9.508105468750001,2.197265625,1.52587890625,0.0,0.0,0.0,0.06103515625
14:39:14.484, -1.6604492187500002,0.287109375,9.70908203125,-1.8518554687500002,0.014355468750000001,9.555957031250001,-0.54931640625,0.18310546875,-0.244140625,-0.1220703125,0.06103515625,0.0
14:39:14.593, -1.33984375,-0.095703125,9.646875000000001,-1.8040039062500002,0.0765625,9.48896484375,-0.1220703125,2.38037109375,-1.52587890625,0.244140625,0.06103515625,0.06103515625
14:39:14.703, -1.6556640625,0.11484375000000001,9.579882812500001,-1.8470703125,0.10048828125,9.555957031250001,1.28173828125,4.8828125,1.0986328125,0.0,0.0,0.0
14:39:14.813, -1.8662109375000002,0.287109375,9.8478515625,-1.8422851562500002,0.0478515625,9.49375,2.44140625,1.3427734375,-0.54931640625,0.0,0.0,0.0
14:39:14.916, -1.7083007812500002,0.24404296875,9.589453125,-1.87099609375,-0.04306640625,9.527246093750001,-0.42724609375,-0.48828125,-2.01416015625,0.0,0.0,0.0
14:39:15.026, -1.6269531250000002,0.42587890625,9.747363281250001,-1.88056640625,0.0478515625,9.5224609375,0.67138671875,-4.69970703125,-2.01416015625,0.0,0.0,0.0
14:39:15.136, -1.5551757812500002,0.26796875000000003,9.603808593750001,-1.8518554687500002,0.028710937500000002,9.512890625,0.0,-2.01416015625,-1.46484375,0.0,0.0,0.0
14:39:15.246, -1.53603515625,0.22968750000000002,9.53681640625,-1.8853515625000001,0.033496093750000004,9.5224609375,-2.3193359375,-0.42724609375,-2.9296875,0.0,0.0,0.0
14:39:15.356, -1.54560546875,0.172265625,9.58466796875,-1.8422851562500002,0.07177734375,9.508105468750001,2.0751953125,0.48828125,0.67138671875,0.0,0.0,0.0
14:39:15.466, -1.6604492187500002,0.10527343750000001,9.575097656250001,-1.8614257812500001,0.06220703125,9.484179687500001,2.0751953125,-0.48828125,-2.86865234375,0.0,0.0,0.0
14:39:15.576, -1.512109375,0.43544921875000003,9.718652343750001,-1.87099609375,0.04306640625,9.54638671875,2.8076171875,-1.708984375,-3.0517578125,0.0,0.0,0.0
14:39:15.679, -1.512109375,0.27753906250000004,9.48896484375,-1.8375000000000001,0.07177734375,9.508105468750001,0.42724609375,-0.06103515625,1.953125,0.0,0.0,0.0
14:39:15.787, -1.53125,0.1244140625,9.75693359375,-1.8422851562500002,0.06220703125,9.51767578125,-1.64794921875,-0.30517578125,0.9765625,0.0,0.0,0.0
14:39:15.896, -1.44990234375,0.2583984375,9.699511718750001,-1.8470703125,0.052636718750000006,9.54638671875,-2.13623046875,-1.64794921875,-2.44140625,0.0,0.0,0.0
14:39:16.007, -1.5551757812500002,0.22968750000000002,9.603808593750001,-1.8518554687500002,0.00478515625,9.484179687500001,0.3662109375,0.42724609375,2.0751953125,0.0,0.0,0.0
14:39:16.110, -1.473828125,0.0478515625,9.75693359375,-1.856640625,0.0765625,9.479394531250001,-0.79345703125,-1.0986328125,1.8310546875,0.0,0.0,0.0
14:39:16.220, -1.3876953125,0.095703125,9.73779296875,-1.83271484375,0.04306640625,9.5607421875,-2.13623046875,-1.953125,0.0,0.0,0.0,0.0
14:39:16.330, -1.48818359375,0.43066406250000006,9.766503906250001,-1.8757812500000002,0.07177734375,9.46982421875,0.9765625,0.0,0.244140625,0.0,0.0,0.0
14:39:16.440, -1.36376953125,0.287109375,9.83349609375,-1.8997070312500002,0.0861328125,9.5224609375,-4.21142578125,-4.8828125,1.953125,0.0,0.0,0.0
14:39:16.550, -1.3494140625000002,-0.057421875000000004,9.551171875000001,-1.8040039062500002,0.03828125,9.532031250000001,-3.11279296875,-1.5869140625,1.3427734375,0.0,0.0,0.0
14:39:16.662, -1.2345703125,0.1435546875,9.575097656250001,-1.87099609375,0.04306640625,9.503320312500001,-3.11279296875,0.67138671875,2.44140625,0.0,0.0,0.0
14:39:16.772, -1.44990234375,-0.057421875000000004,9.7521484375,-1.856640625,0.06699218750000001,9.49853515625,-0.48828125,2.13623046875,-0.244140625,0.0,0.0,0.0
14:39:16.882, -1.378125,0.13876953125000002,9.68515625,-1.8853515625000001,0.04306640625,9.503320312500001,1.3427734375,-2.685546875,-2.38037109375,0.1220703125,0.0,-0.1220703125
14:39:16.991, -1.2728515625,0.153125,9.63251953125,-1.856640625,0.057421875000000004,9.512890625,-0.9765625,-1.89208984375,-5.31005859375,0.0,-0.1220703125,-0.06103515625
14:39:17.101, -1.244140625,0.033496093750000004,9.599023437500001,-1.8518554687500002,0.06699218750000001,9.51767578125,-6.7138671875,0.48828125,-1.40380859375,-0.06103515625,0.1220703125,0.0
14:39:17.211, -1.24892578125,-0.31103515625,9.73779296875,-1.8470703125,0.04306640625,9.5224609375,-3.23486328125,1.3427734375,2.9296875,0.18310546875,0.18310546875,-0.06103515625
14:39:17.321, -1.3733398437500002,-0.33974609375000003,9.73779296875,-1.9092773437500001,0.057421875000000004,9.474609375,-1.953125,-0.06103515625,0.67138671875,0.0,0.06103515625,-0.1220703125
14:39:17.440, -1.30634765625,-0.16269531250000002,9.58466796875,-1.856640625,0.06220703125,9.532031250000001,0.18310546875,0.1220703125,-0.67138671875,0.06103515625,0.0,0.06103515625
14:39:17.550, -1.30634765625,-0.21533203125000003,9.651660156250001,-1.856640625,0.019140625,9.5416015625,0.8544921875,-0.732421875,-0.42724609375,0.0,0.0,-0.1220703125
14:39:17.660, -1.2872070312500001,-0.0478515625,9.742578125000001,-1.8853515625000001,0.00478515625,9.512890625,0.30517578125,-1.220703125,-0.79345703125,-0.06103515625,0.0,0.06103515625
14:39:17.770, -1.2776367187500002,0.014355468750000001,9.63251953125,-1.894921875,0.07177734375,9.532031250000001,0.79345703125,-0.79345703125,0.8544921875,0.06103515625,-0.06103515625,0.0
14:39:17.880, -1.26806640625,-0.24404296875,9.704296875,-1.8279296875000002,0.11484375000000001,9.5607421875,-1.3427734375,-0.18310546875,-0.30517578125,0.0,0.0,0.0
14:39:17.990, -1.225,-0.1435546875,9.63251953125,-1.88056640625,0.02392578125,9.49853515625,-0.8544921875,-0.1220703125,-0.9765625,0.0,0.0,0.0
14:39:18.093, -1.2537109375000002,-0.18183593750000002,9.675585937500001,-1.856640625,0.06699218750000001,9.51767578125,-0.48828125,-0.1220703125,-0.79345703125,0.0,0.0,0.0
14:39:18.203, -1.26806640625,-0.23447265625000002,9.59423828125,-1.8375000000000001,0.06220703125,9.503320312500001,-1.89208984375,-0.1220703125,-3.23486328125,0.0,0.0,0.0
14:39:18.313, -1.2297851562500002,-0.25361328125000004,9.699511718750001,-1.8853515625000001,0.0478515625,9.53681640625,-1.40380859375,0.48828125,-5.126953125,0.0,0.0,0.0
14:39:18.423, -1.26806640625,-0.18662109375000002,9.699511718750001,-1.87099609375,0.028710937500000002,9.551171875000001,-1.15966796875,0.06103515625,-1.89208984375,0.0,0.0,0.0
14:39:18.534, -1.2728515625,-0.39716796875000004,9.73779296875,-1.92841796875,0.057421875000000004,9.5607421875,-1.5869140625,-0.732421875,-0.54931640625,0.0,0.0,0.0
14:39:18.644, -1.20107421875,-0.3923828125,9.575097656250001,-1.8997070312500002,0.057421875000000004,9.508105468750001,-2.13623046875,0.0,-3.47900390625,0.0,0.0,0.0
14:39:18.753, -1.26806640625,-0.34453125,9.72822265625,-1.8279296875000002,0.0861328125,9.532031250000001,-2.197265625,1.15966796875,-5.4931640625,0.06103515625,-0.06103515625,0.06103515625
14:39:18.864, -1.3302734375,-0.6794921875000001,9.61337890625,-1.856640625,0.03828125,9.5224609375,-3.11279296875,-1.03759765625,-6.89697265625,0.0,0.0,0.1220703125
14:39:18.974, -1.35419921875,-0.69384765625,9.866992187500001,-1.8614257812500001,0.03828125,9.551171875000001,0.6103515625,-2.5634765625,-5.79833984375,0.0,0.0,0.0
14:39:19.084, -1.2345703125,-0.42109375000000004,9.555957031250001,-1.87099609375,0.028710937500000002,9.56552734375,5.0048828125,-0.79345703125,-2.9296875,0.1220703125,0.06103515625,0.0
14:39:19.194, -1.2058593750000002,-0.54072265625,9.85263671875,-1.8853515625000001,0.052636718750000006,9.512890625,5.7373046875,-4.82177734375,-1.708984375,-0.06103515625,0.0,0.0
14:39:19.304, -1.15322265625,-0.36367187500000003,9.790429687500001,-1.8518554687500002,0.057421875000000004,9.5224609375,6.103515625,-9.33837890625,-1.8310546875,-0.06103515625,0.0,0.0
14:39:19.414, -0.8708984375000001,-0.12919921875,9.914843750000001,-1.8135742187500001,0.06220703125,9.532031250000001,5.43212890625,-7.62939453125,-0.6103515625,-0.1220703125,-0.18310546875,0.0
14:39:19.524, -0.50244140625,0.0095703125,9.7330078125,-1.8997070312500002,0.0765625,9.527246093750001,-0.3662109375,-3.41796875,5.126953125,0.0,0.0,0.1220703125
14:39:19.634, -0.5120117187500001,-0.5120117187500001,9.771289062500001,-1.8614257812500001,0.057421875000000004,9.5224609375,4.33349609375,-1.3427734375,3.23486328125,-0.06103515625,-0.1220703125,0.0
14:39:19.744, -0.58857421875,-0.095703125,9.747363281250001,-1.82314453125,0.052636718750000006,9.503320312500001,2.685546875,0.18310546875,-4.7607421875,0.0,0.0,0.0
14:39:19.847, -0.7225585937500001,0.1435546875,9.66123046875,-1.856640625,0.0478515625,9.5224609375,1.3427734375,0.42724609375,-0.3662109375,0.0,0.0,0.0
14:39:19.959, -0.6747070312500001,-0.09091796875000001,9.56552734375,-1.9044921875,0.057421875000000004,9.532031250000001,0.0,0.244140625,3.7841796875,0.0,0.0,0.0
14:39:20.077, -0.7751953125000001,-0.20576171875000002,9.85263671875,-1.8470703125,0.08134765625000001,9.527246093750001,-0.91552734375,1.8310546875,0.244140625,0.0,0.0,0.0
14:39:20.187, -0.7225585937500001,-0.15791015625000002,9.68994140625,-1.8518554687500002,0.0861328125,9.5416015625,1.3427734375,1.28173828125,0.0,0.0,0.0,0.0
14:39:20.297, -0.765625,-0.0478515625,9.723437500000001,-1.8614257812500001,-0.014355468750000001,9.508105468750001,2.8076171875,3.41796875,-1.46484375,0.0,0.0,0.0
14:39:20.407, -0.8374023437500001,0.057421875000000004,9.75693359375,-1.87099609375,0.033496093750000004,9.54638671875,2.685546875,3.84521484375,-1.15966796875,0.0,0.0,0.0
14:39:20.517, -1.00966796875,0.052636718750000006,9.76171875,-1.87099609375,0.06220703125,9.508105468750001,0.0,2.38037109375,1.3427734375,0.0,0.0,0.0
14:39:20.627, -1.00966796875,0.0,9.8095703125,-1.83271484375,0.08134765625000001,9.484179687500001,1.03759765625,1.77001953125,0.18310546875,0.0,0.0,0.0
14:39:20.737, -1.0000976562500001,0.095703125,9.780859375,-1.8518554687500002,0.06220703125,9.54638671875,1.220703125,1.89208984375,-0.42724609375,0.0,0.0,0.0
14:39:20.848, -1.01923828125,0.11005859375,9.6373046875,-1.8422851562500002,0.028710937500000002,9.53681640625,-0.91552734375,4.39453125,1.8310546875,0.0,0.0,0.0
14:39:20.953, -1.15322265625,0.028710937500000002,9.78564453125,-1.9236328125000002,0.04306640625,9.5416015625,-1.953125,5.31005859375,1.77001953125,0.0,0.0,0.0
14:39:21.056, -1.1962890625,-0.04306640625,9.766503906250001,-1.8087890625,0.06699218750000001,9.48896484375,0.732421875,0.18310546875,-1.03759765625,0.0,0.0,0.0
14:39:21.163, -1.225,0.09091796875000001,9.675585937500001,-1.8470703125,0.0478515625,9.474609375,1.03759765625,-0.79345703125,-1.89208984375,0.0,0.0,0.0
14:39:21.275, -1.1436523437500001,0.014355468750000001,9.795214843750001,-1.8757812500000002,0.06220703125,9.555957031250001,0.1220703125,-1.40380859375,-0.6103515625,0.0,0.0,0.0
14:39:21.388, -1.16279296875,-0.04306640625,9.6181640625,-1.88056640625,0.08134765625000001,9.56552734375,0.0,-2.62451171875,-1.52587890625,0.0,0.0,0.0
14:39:21.500, -1.25849609375,-0.02392578125,9.895703125,-1.82314453125,0.052636718750000006,9.53681640625,1.3427734375,-3.96728515625,-2.86865234375,0.0,0.0,0.0
14:39:21.609, -1.1340820312500002,-0.057421875000000004,10.221093750000001,-1.9140625000000002,0.052636718750000006,9.49375,-0.79345703125,-28.1982421875,-14.7705078125,0.0,0.0,0.0
14:39:21.721, -0.5550781250000001,0.153125,11.249902343750001,-1.79921875,0.052636718750000006,9.49375,-2.86865234375,-66.89453125,-15.56396484375,0.0,0.0,0.0
14:39:21.825, 1.49775390625,0.29189453125000003,8.0103515625,-1.9092773437500001,0.06699218750000001,9.5224609375,5.92041015625,-28.86962890625,2.13623046875,0.0,0.0,0.0
14:39:21.929, 1.8040039062500002,0.153125,9.3693359375,-1.856640625,0.095703125,9.49853515625,-1.15966796875,8.4228515625,-0.244140625,0.0,0.0,0.0
14:39:22.042, 0.8134765625000001,0.18662109375000002,9.857421875,-1.8422851562500002,0.0478515625,9.503320312500001,1.220703125,11.41357421875,2.01416015625,0.0,0.0,0.0
14:39:22.154, 0.6412109375,0.11484375000000001,9.75693359375,-1.8518554687500002,0.052636718750000006,9.527246093750001,1.708984375,1.3427734375,-1.40380859375,0.0,0.0,0.0
14:39:22.266, 0.6555664062500001,0.17705078125,9.933984375000001,-1.88056640625,0.057421875000000004,9.508105468750001,1.3427734375,1.03759765625,-1.15966796875,0.0,0.0,0.0
14:39:22.371, 1.0000976562500001,0.16748046875,9.49853515625,-1.8279296875000002,0.06220703125,9.474609375,1.708984375,3.41796875,-0.244140625,0.0,0.0,0.0
14:39:22.483, 0.9091796875000001,0.18662109375000002,9.5416015625,-1.8518554687500002,0.028710937500000002,9.512890625,1.77001953125,11.23046875,0.3662109375,0.0,0.0,0.0
14:39:22.587, 0.39716796875000004,0.23925781250000003,9.771289062500001,-1.8518554687500002,0.052636718750000006,9.508105468750001,0.91552734375,14.95361328125,1.52587890625,0.0,0.0,0.0
14:39:22.691, -0.3923828125,0.25361328125000004,10.1923828125,-1.9044921875,0.057421875000000004,9.532031250000001,1.708984375,-0.79345703125,0.1220703125,0.0,0.0,0.0
14:39:22.801, 0.06220703125,0.34931640625000004,9.895703125,-1.8183593750000002,0.028710937500000002,9.527246093750001,1.89208984375,-7.62939453125,-0.1220703125,0.0,0.0,0.0
14:39:22.911, 0.6125,0.2966796875,9.742578125000001,-1.8614257812500001,0.08134765625000001,9.512890625,0.0,-8.72802734375,1.220703125,0.0,0.0,0.0
14:39:23.021, 0.97138671875,0.287109375,9.3693359375,-1.8422851562500002,0.052636718750000006,9.551171875000001,0.54931640625,-0.42724609375,0.79345703125,0.0,0.0,0.0
14:39:23.131, 0.5359375000000001,0.31103515625,9.8,-1.8518554687500002,0.033496093750000004,9.527246093750001,0.0,7.2021484375,-0.06103515625,0.0,0.0,0.0
14:39:23.241, -0.0095703125,0.3923828125,10.0201171875,-1.8183593750000002,0.057421875000000004,9.49375,-0.3662109375,2.50244140625,0.91552734375,0.0,0.0,0.0
14:39:23.352, 0.3349609375,0.33017578125,9.866992187500001,-1.8997070312500002,0.0765625,9.5416015625,-0.8544921875,-4.0283203125,2.0751953125,0.0,0.0,0.0
14:39:23.462, 0.63642578125,0.2583984375,9.599023437500001,-1.8518554687500002,0.0478515625,9.51767578125,-0.30517578125,-1.708984375,2.25830078125,0.0,0.0,0.0
14:39:23.572, 0.5359375000000001,0.2201171875,9.80478515625,-1.8470703125,0.04306640625,9.51767578125,0.0,2.01416015625,0.30517578125,0.0,0.0,0.0
14:39:23.682, 0.3541015625,0.31582031250000003,9.72822265625,-1.8757812500000002,0.03828125,9.51767578125,-0.732421875,2.50244140625,-0.79345703125,0.0,0.0,0.0
14:39:23.792, 0.2583984375,0.27275390625,9.88134765625,-1.83271484375,0.09091796875000001,9.53681640625,-0.79345703125,1.46484375,0.79345703125,0.0,0.0,0.0
14:39:23.902, 0.3349609375,0.26796875000000003,9.7521484375,-1.87099609375,0.04306640625,9.5224609375,-0.244140625,-0.1220703125,0.79345703125,0.0,0.0,0.0
14:39:24.012, 0.3828125,0.23447265625000002,9.76171875,-1.88056640625,0.07177734375,9.5224609375,-0.1220703125,0.732421875,0.3662109375,0.0,0.0,0.0
14:39:24.115, 0.32539062500000004,0.26318359375,9.7521484375,-1.8614257812500001,0.06220703125,9.503320312500001,-0.732421875,2.13623046875,-0.18310546875,0.0,0.0,0.0
14:39:24.226, 0.26796875000000003,0.2583984375,9.80478515625,-1.82314453125,0.0861328125,9.49853515625,0.0,1.953125,0.244140625,0.0,0.0,0.0
14:39:24.352, 0.20576171875000002,0.26796875000000003,9.742578125000001,-1.894921875,0.052636718750000006,9.48896484375,-0.06103515625,1.40380859375,0.30517578125,0.0,0.0,0.0
14:39:24.462, 0.172265625,0.23447265625000002,9.862207031250001,-1.8662109375000002,0.0478515625,9.532031250000001,-0.732421875,0.6103515625,0.0,0.0,0.0,0.0
14:39:24.572, 0.21533203125000003,0.24404296875,9.73779296875,-1.8662109375000002,0.06699218750000001,9.53681640625,-0.1220703125,1.46484375,0.42724609375,0.0,0.0,0.0
14:39:24.682, 0.16748046875,0.23447265625000002,9.8287109375,-1.8422851562500002,0.07177734375,9.527246093750001,-0.30517578125,1.8310546875,0.42724609375,0.0,0.0,0.0
14:39:24.792, 0.09091796875000001,0.26796875000000003,9.75693359375,-1.88056640625,0.028710937500000002,9.508105468750001,0.06103515625,2.13623046875,-0.06103515625,0.0,0.0,0.0
14:39:24.902, 0.03828125,0.30146484375000004,9.8765625,-1.83271484375,0.06220703125,9.54638671875,-0.06103515625,1.3427734375,0.54931640625,0.0,0.0,0.0
14:39:25.012, 0.014355468750000001,0.22490234375,9.747363281250001,-1.8422851562500002,0.07177734375,9.49375,-0.244140625,-0.06103515625,0.79345703125,0.0,0.0,0.0
14:39:25.122, 0.033496093750000004,0.23925781250000003,9.843066406250001,-1.87099609375,0.08134765625000001,9.5224609375,-0.06103515625,0.0,0.42724609375,0.0,0.0,0.0
14:39:25.231, 0.0861328125,0.248828125,9.8,-1.856640625,0.057421875000000004,9.51767578125,0.0,-0.3662109375,0.8544921875,0.0,0.0,0.0
14:39:25.341, 0.04306640625,0.24404296875,9.7521484375,-1.8470703125,0.0765625,9.51767578125,0.06103515625,0.1220703125,-0.06103515625,0.0,0.0,0.0
14:39:25.452, 0.095703125,0.22968750000000002,9.771289062500001,-1.8422851562500002,0.04306640625,9.532031250000001,0.0,-0.06103515625,-0.42724609375,0.0,0.0,0.0
14:39:25.562, 0.06220703125,0.27275390625,9.75693359375,-1.88056640625,0.06220703125,9.5416015625,0.1220703125,0.9765625,0.0,0.0,0.0,0.0
14:39:25.673, 0.07177734375,0.26796875000000003,9.704296875,-1.8470703125,0.06220703125,9.54638671875,0.0,2.685546875,-0.42724609375,0.0,0.0,0.0
14:39:25.786, 0.0095703125,0.26796875000000003,9.8,-1.8614257812500001,0.095703125,9.49853515625,-0.30517578125,1.46484375,0.06103515625,0.0,0.0,0.0
14:39:25.897, -0.11005859375,0.22490234375,9.88134765625,-1.856640625,0.0765625,9.51767578125,0.18310546875,0.3662109375,0.54931640625,0.0,0.0,0.0
14:39:26.006, -0.08134765625000001,0.28232421875,9.790429687500001,-1.82314453125,0.07177734375,9.5224609375,0.48828125,0.06103515625,0.0,0.0,0.0,0.0
14:39:26.109, -0.0095703125,0.24404296875,9.747363281250001,-1.9140625000000002,0.052636718750000006,9.503320312500001,0.48828125,-0.3662109375,-0.1220703125,0.0,0.0,0.0
14:39:26.219, 0.019140625,0.26318359375,9.795214843750001,-1.8135742187500001,0.04306640625,9.51767578125,0.1220703125,-0.18310546875,0.06103515625,0.0,0.0,0.0
14:39:26.329, -0.028710937500000002,0.2583984375,9.747363281250001,-1.8422851562500002,0.057421875000000004,9.49853515625,0.1220703125,0.48828125,-0.1220703125,0.0,0.0,0.0
14:39:26.439, -0.06220703125,0.29189453125000003,9.8478515625,-1.8470703125,0.057421875000000004,9.51767578125,0.0,0.0,0.18310546875,0.0,0.0,0.0
14:39:26.549, -0.0861328125,0.28232421875,9.766503906250001,-1.88056640625,0.052636718750000006,9.49375,0.18310546875,0.30517578125,0.244140625,0.0,0.0,0.0
14:39:26.659, -0.04306640625,0.2583984375,9.77607421875,-1.8375000000000001,0.0478515625,9.56552734375,-0.06103515625,0.244140625,-0.54931640625,0.0,0.0,0.0
14:39:26.769, -0.16269531250000002,0.32060546875,9.8287109375,-1.8518554687500002,0.03828125,9.532031250000001,-0.06103515625,0.30517578125,0.1220703125,0.0,0.0,0.0
14:39:26.878, -0.03828125,0.26796875000000003,9.8095703125,-1.8518554687500002,0.07177734375,9.508105468750001,-0.30517578125,0.0,0.30517578125,0.0,0.0,0.0
14:39:26.988, -0.0861328125,0.32060546875,9.747363281250001,-1.8422851562500002,0.07177734375,9.5224609375,0.06103515625,0.8544921875,0.732421875,0.0,0.0,0.0
14:39:27.098, -0.11962890625000001,0.31582031250000003,9.8,-1.8757812500000002,0.07177734375,9.555957031250001,0.30517578125,0.06103515625,0.91552734375,0.0,0.0,0.0
14:39:27.208, -0.07177734375,0.27275390625,9.771289062500001,-1.8422851562500002,0.06699218750000001,9.49375,-0.06103515625,0.18310546875,0.6103515625,0.0,0.0,0.0
14:39:27.318, -0.1244140625,0.29189453125000003,9.77607421875,-1.8422851562500002,0.03828125,9.51767578125,0.30517578125,0.42724609375,0.3662109375,0.0,0.0,0.0
14:39:27.428, -0.11484375000000001,0.28232421875,9.843066406250001,-1.8135742187500001,0.028710937500000002,9.51767578125,0.3662109375,0.67138671875,1.953125,0.0,0.0,0.0
14:39:27.538, -0.153125,0.287109375,9.80478515625,-1.856640625,0.03828125,9.54638671875,0.1220703125,0.3662109375,1.0986328125,0.0,0.0,0.0
14:39:27.647, -0.0861328125,0.29189453125000003,9.723437500000001,-1.8422851562500002,0.033496093750000004,9.527246093750001,0.0,0.06103515625,0.30517578125,0.0,0.0,0.0
14:39:27.758, -0.1244140625,0.287109375,9.80478515625,-1.88056640625,0.08134765625000001,9.532031250000001,0.79345703125,0.48828125,-0.06103515625,0.0,0.0,0.0
14:39:27.868, -0.0861328125,0.36845703125,9.73779296875,-1.8518554687500002,0.06699218750000001,9.512890625,0.8544921875,0.91552734375,-0.6103515625,0.0,0.0,0.0
14:39:27.978, -0.17705078125,0.38759765625000003,9.795214843750001,-1.8375000000000001,0.0478515625,9.51767578125,0.0,0.9765625,0.18310546875,0.0,0.0,0.0
14:39:28.081, -0.24404296875,0.3541015625,9.795214843750001,-1.83271484375,0.04306640625,9.53681640625,-0.42724609375,0.732421875,0.1220703125,0.0,0.0,0.0
14:39:28.191, -0.21533203125000003,0.31103515625,9.814355468750001,-1.8757812500000002,0.0765625,9.503320312500001,-0.6103515625,0.0,0.3662109375,0.0,0.0,0.0
14:39:28.301, -0.22490234375,0.30625,9.771289062500001,-1.8375000000000001,0.028710937500000002,9.527246093750001,-0.06103515625,-0.06103515625,0.3662109375,0.0,0.0,0.0
14:39:28.428, -0.19619140625,0.3541015625,9.76171875,-1.88056640625,0.057421875000000004,9.5224609375,-0.3662109375,0.8544921875,-0.244140625,0.0,0.0,0.0
14:39:28.537, -0.28232421875,0.3923828125,9.76171875,-1.8757812500000002,0.07177734375,9.503320312500001,-0.30517578125,0.79345703125,-0.732421875,0.0,0.0,0.0
14:39:28.647, -0.287109375,0.3349609375,9.8,-1.894921875,0.06220703125,9.484179687500001,0.06103515625,0.0,0.244140625,0.0,0.0,0.0
14:39:28.758, -0.30146484375000004,0.32060546875,9.910058593750001,-1.8422851562500002,0.03828125,9.5416015625,-1.15966796875,-2.25830078125,-1.03759765625,0.0,0.0,0.0
14:39:28.868, -0.32060546875,0.31103515625,9.77607421875,-1.87099609375,0.07177734375,9.54638671875,0.06103515625,-3.60107421875,-0.9765625,0.0,0.0,0.0
14:39:28.977, -0.0478515625,0.24404296875,9.866992187500001,-1.8518554687500002,0.0478515625,9.508105468750001,1.8310546875,-6.591796875,-0.732421875,0.0,0.0,0.0
14:39:29.087, 0.17705078125,0.35888671875,9.704296875,-1.9140625000000002,0.028710937500000002,9.59423828125,2.3193359375,-5.615234375,-0.8544921875,0.0,0.0,0.0
14:39:29.197, 0.27753906250000004,0.3923828125,9.7330078125,-1.83271484375,0.07177734375,9.503320312500001,1.46484375,-2.3193359375,-0.9765625,0.0,0.0,0.0
14:39:29.307, 0.18183593750000002,0.5359375000000001,9.7521484375,-1.82314453125,0.06220703125,9.49853515625,1.3427734375,1.46484375,-1.708984375,0.0,0.0,0.0
14:39:29.417, 0.10527343750000001,0.6077148437500001,9.8,-1.894921875,0.019140625,9.555957031250001,0.48828125,0.3662109375,-0.18310546875,0.0,0.0,0.0
14:39:29.527, 0.18183593750000002,0.46416015625,9.75693359375,-1.8183593750000002,0.0478515625,9.5224609375,-1.953125,0.67138671875,2.62451171875,0.0,0.0,0.0
14:39:29.637, 0.0,0.28232421875,9.890917968750001,-1.82314453125,0.10527343750000001,9.527246093750001,-0.42724609375,2.13623046875,0.48828125,0.0,0.0,0.0
14:39:29.747, 0.014355468750000001,0.36845703125,9.766503906250001,-1.87099609375,0.06220703125,9.48896484375,1.220703125,-0.06103515625,-0.79345703125,0.0,0.0,0.0
14:39:29.857, 0.08134765625000001,0.40673828125000006,9.718652343750001,-1.8757812500000002,0.019140625,9.5416015625,-0.244140625,-0.30517578125,-1.40380859375,0.0,0.0,0.0
14:39:29.967, -0.55029296875,0.3923828125,10.891015625000001,-1.7657226562500001,0.057421875000000004,9.56552734375,2.01416015625,-2.62451171875,0.0,0.0,0.0,0.0
14:39:30.086, -0.43066406250000006,0.401953125,9.73779296875,-1.8614257812500001,0.0478515625,9.474609375,2.5634765625,-16.17431640625,-0.54931640625,0.0,0.0,0.0
14:39:30.196, 0.5790039062500001,0.47373046875,9.90048828125,-1.894921875,0.03828125,9.551171875000001,0.6103515625,-2.50244140625,0.8544921875,0.0,0.0,0.0
14:39:30.305, 0.68427734375,0.5311523437500001,9.527246093750001,-1.83271484375,0.057421875000000004,9.555957031250001,-0.42724609375,3.2958984375,0.0,0.0,0.0,0.0
14:39:30.415, 0.23447265625000002,0.5263671875,9.589453125,-1.8422851562500002,0.057421875000000004,9.5607421875,-0.1220703125,10.31494140625,0.18310546875,0.0,0.0,0.0
14:39:30.518, -0.22968750000000002,0.49287109375000004,9.957910156250001,-1.9092773437500001,0.06699218750000001,9.503320312500001,0.0,6.34765625,2.197265625,0.0,0.0,0.0
14:39:30.629, -0.24404296875,0.440234375,9.8287109375,-1.8040039062500002,0.0478515625,9.503320312500001,0.54931640625,-0.3662109375,-0.42724609375,0.0,0.0,0.0
14:39:30.734, 0.06220703125,0.50244140625,9.75693359375,-1.8662109375000002,0.04306640625,9.579882812500001,1.40380859375,-2.50244140625,-0.06103515625,0.0,0.0,0.0
14:39:30.843, 0.07177734375,0.47373046875,9.70908203125,-1.894921875,0.0478515625,9.503320312500001,0.79345703125,0.1220703125,-0.67138671875,0.0,0.0,0.0
14:39:30.953, -0.06220703125,0.6220703125,9.82392578125,-1.894921875,0.057421875000000004,9.5224609375,-0.18310546875,1.52587890625,-0.06103515625,0.0,0.0,0.0
14:39:31.065, -0.10527343750000001,0.52158203125,9.790429687500001,-1.8422851562500002,0.028710937500000002,9.53681640625,-0.18310546875,0.42724609375,0.30517578125,0.0,0.0,0.0
14:39:31.174, -0.04306640625,0.5550781250000001,9.795214843750001,-1.9044921875,0.028710937500000002,9.460253906250001,0.0,0.244140625,0.06103515625,0.0,0.0,0.0
14:39:31.284, -0.033496093750000004,0.45458984375000006,9.7521484375,-1.8183593750000002,0.09091796875000001,9.51767578125,0.06103515625,0.79345703125,0.30517578125,0.0,0.0,0.0
14:39:31.394, -0.0095703125,0.5790039062500001,9.75693359375,-1.9379882812500002,0.06220703125,9.5703125,0.244140625,0.244140625,-0.06103515625,0.0,0.0,0.0
14:39:31.504, -0.11005859375,0.57421875,9.742578125000001,-1.8853515625000001,0.028710937500000002,9.479394531250001,-0.48828125,0.732421875,1.28173828125,0.0,0.0,0.0
14:39:31.614, -0.07177734375,0.5359375000000001,9.76171875,-1.856640625,0.06220703125,9.48896484375,-1.15966796875,0.9765625,1.52587890625,0.0,0.0,0.0
14:39:31.724, 0.37324218750000004,0.55029296875,8.97216796875,-1.8997070312500002,0.06699218750000001,9.532031250000001,-3.60107421875,7.26318359375,6.77490234375,0.0,0.0,0.0
14:39:31.834, -0.74169921875,0.45458984375000006,9.68994140625,-1.8614257812500001,0.0861328125,9.5224609375,0.0,-7.6904296875,5.92041015625,0.0,0.0,0.0
14:39:31.944, -0.43066406250000006,0.3541015625,9.819140625000001,-1.8662109375000002,0.014355468750000001,9.527246093750001,-0.48828125,-5.9814453125,5.126953125,0.0,0.0,0.0
14:39:32.055, 0.28232421875,0.16748046875,9.60859375,-1.8997070312500002,0.11005859375,9.527246093750001,-2.13623046875,-2.9296875,0.42724609375,0.0,0.0,0.0
14:39:32.158, 0.27275390625,0.30625,9.72822265625,-1.8375000000000001,0.06220703125,9.53681640625,0.6103515625,2.5634765625,-1.953125,0.0,0.0,0.0
14:39:32.268, -0.32539062500000004,0.5311523437500001,9.83349609375,-1.8518554687500002,0.06220703125,9.527246093750001,0.42724609375,3.35693359375,-0.18310546875,0.0,0.0,0.0
14:39:32.378, -0.36367187500000003,0.4880859375,9.9052734375,-1.8662109375000002,0.0765625,9.49853515625,-0.54931640625,-0.732421875,0.91552734375,0.0,0.0,0.0
14:39:32.488, -0.04306640625,0.37324218750000004,9.718652343750001,-1.8375000000000001,0.07177734375,9.5416015625,0.1220703125,-0.54931640625,0.732421875,0.0,0.0,0.0
14:39:32.598, -0.04306640625,0.3828125,9.857421875,-1.9140625000000002,0.04306640625,9.532031250000001,0.244140625,-0.8544921875,-0.67138671875,0.0,0.0,0.0
14:39:32.708, -0.21054687500000002,0.49765625,9.723437500000001,-1.87099609375,0.0861328125,9.503320312500001,-0.18310546875,0.54931640625,-0.30517578125,0.0,0.0,0.0
14:39:32.817, -0.18662109375000002,0.47373046875,9.819140625000001,-1.8662109375000002,0.052636718750000006,9.53681640625,0.1220703125,-0.48828125,0.1220703125,0.0,0.0,0.0
14:39:32.927, 0.014355468750000001,0.35888671875,9.599023437500001,-1.8422851562500002,0.0861328125,9.555957031250001,-0.42724609375,0.54931640625,-0.30517578125,0.0,0.0,0.0
14:39:33.037, -0.12919921875,0.49287109375000004,10.005761718750001,-1.8422851562500002,0.0765625,9.484179687500001,0.0,0.9765625,-0.42724609375,0.0,0.0,0.0
14:39:33.147, -0.26796875000000003,0.45458984375000006,9.68515625,-1.856640625,0.052636718750000006,9.527246093750001,0.9765625,-4.08935546875,0.6103515625,0.0,0.0,0.0
14:39:33.257, -0.15791015625000002,0.44501953125000004,9.771289062500001,-1.8518554687500002,0.06220703125,9.532031250000001,1.28173828125,-3.662109375,-1.220703125,0.0,0.0,0.0
14:39:33.366, 0.22968750000000002,0.46894531250000004,9.742578125000001,-1.894921875,0.057421875000000004,9.49375,1.220703125,-0.91552734375,-0.91552734375,0.0,0.0,0.0
14:39:33.476, 0.14833984375,0.5359375000000001,9.766503906250001,-1.87099609375,0.052636718750000006,9.527246093750001,1.0986328125,-1.15966796875,-1.220703125,0.0,0.0,0.0
14:39:33.587, -0.019140625,0.5455078125,9.747363281250001,-1.8375000000000001,0.02392578125,9.508105468750001,1.0986328125,0.30517578125,-0.30517578125,0.0,0.0,0.0
14:39:33.696, -0.04306640625,0.61728515625,9.83349609375,-1.8757812500000002,0.04306640625,9.54638671875,0.54931640625,-0.42724609375,-0.6103515625,0.0,0.0,0.0
14:39:33.806, -0.34931640625000004,0.68427734375,10.603906250000001,-1.8614257812500001,0.0478515625,9.49853515625,6.4697265625,-21.42333984375,0.6103515625,0.0,0.0,0.0
14:39:33.916, 0.8182617187500001,0.64599609375,9.197070312500001,-1.8614257812500001,0.0765625,9.555957031250001,-1.64794921875,-22.52197265625,6.40869140625,0.0,0.0,0.0
14:39:34.026, 1.63173828125,0.46894531250000004,9.1587890625,-1.8470703125,0.095703125,9.5224609375,-0.48828125,6.89697265625,-2.25830078125,0.0,0.0,0.0
14:39:34.129, 0.7273437500000001,0.8469726562500001,9.895703125,-1.8470703125,0.0765625,9.551171875000001,2.74658203125,18.9208984375,-3.47900390625,0.0,0.0,0.0
14:39:34.238, -0.07177734375,0.8469726562500001,9.857421875,-1.8135742187500001,0.04306640625,9.503320312500001,0.18310546875,11.29150390625,1.40380859375,0.0,0.0,0.0
14:39:34.348, -0.29189453125000003,0.7034179687500001,9.972265625,-1.91884765625,0.07177734375,9.4171875,-1.0986328125,5.615234375,2.44140625,0.0,0.0,0.0
14:39:34.459, 0.033496093750000004,0.6412109375,9.771289062500001,-1.8901367187500002,0.07177734375,9.5224609375,-1.220703125,0.6103515625,0.67138671875,0.0,0.0,0.0
14:39:34.569, -0.22490234375,0.6555664062500001,10.75703125,-1.8470703125,0.06699218750000001,9.49375,0.30517578125,-4.2724609375,0.8544921875,0.0,0.0,0.0
14:39:34.678, 0.30146484375000004,0.708203125,8.84775390625,-1.88056640625,0.07177734375,9.551171875000001,-1.77001953125,-9.3994140625,1.52587890625,0.0,0.0,0.0
14:39:34.788, 0.10048828125,0.63642578125,10.58955078125,-1.894921875,0.10048828125,9.484179687500001,-1.8310546875,11.71875,-0.3662109375,0.0,0.0,0.0
14:39:34.898, 0.27753906250000004,0.5790039062500001,9.18271484375,-1.83271484375,0.0765625,9.54638671875,-0.54931640625,-10.19287109375,1.03759765625,0.0,0.0,0.0
14:39:35.008, 0.22490234375,0.5646484375,10.09189453125,-1.8901367187500002,0.04306640625,9.512890625,0.0,5.9814453125,-0.42724609375,0.0,0.0,0.0
14:39:35.118, 0.6268554687500001,0.3828125,8.65634765625,-1.88056640625,0.07177734375,9.5416015625,1.03759765625,10.19287109375,0.06103515625,0.0,0.0,0.0
14:39:35.246, 0.30146484375000004,0.6603515625,9.61337890625,-1.8518554687500002,0.04306640625,9.508105468750001,-1.64794921875,42.17529296875,-3.47900390625,0.0,0.0,0.0
14:39:35.349, -1.6508789062500002,0.8948242187500001,10.5177734375,-1.88056640625,0.06220703125,9.51767578125,0.9765625,-10.92529296875,4.82177734375,0.0,0.0,0.0
14:39:35.459, -0.8374023437500001,0.76083984375,9.747363281250001,-1.8757812500000002,0.04306640625,9.5416015625,1.708984375,-24.2919921875,8.60595703125,0.0,0.0,0.0
14:39:35.569, 0.8708984375000001,0.34453125,9.42197265625,-1.8614257812500001,0.02392578125,9.51767578125,-4.33349609375,-18.24951171875,4.8828125,0.0,0.0,0.0
14:39:35.678, 1.6269531250000002,0.30625,9.1779296875,-1.8614257812500001,0.07177734375,9.49375,0.1220703125,-0.54931640625,-3.35693359375,0.0,0.0,0.0
14:39:35.788, 1.06708984375,0.5646484375,9.1396484375,-1.856640625,0.07177734375,9.503320312500001,2.13623046875,16.6015625,-6.16455078125,0.0,0.0,0.0
14:39:35.898, -0.8326171875,0.9283203125,10.273730468750001,-1.856640625,0.08134765625000001,9.532031250000001,1.0986328125,20.69091796875,-2.685546875,0.0,0.0,0.0
14:39:36.008, -1.07666015625,0.9570312500000001,10.33115234375,-1.8470703125,0.057421875000000004,9.53681640625,0.6103515625,-0.6103515625,3.11279296875,0.0,0.0,0.0
14:39:36.111, -0.54072265625,0.8661132812500001,9.886132812500001,-1.88056640625,0.0478515625,9.512890625,-3.47900390625,-3.47900390625,6.103515625,0.0,0.0,0.0
14:39:36.221, -0.42587890625,0.92353515625,9.7521484375,-1.8518554687500002,0.10048828125,9.503320312500001,-5.18798828125,-5.06591796875,11.1083984375,0.0,0.0,0.0
14:39:36.332, -0.033496093750000004,0.6890625,9.77607421875,-1.8422851562500002,0.014355468750000001,9.5703125,-0.3662109375,-9.46044921875,20.81298828125,0.0,0.0,0.0
14:39:36.441, 0.31582031250000003,0.38759765625000003,9.364550781250001,-1.8375000000000001,0.033496093750000004,9.5224609375,2.197265625,-0.48828125,18.00537109375,0.0,0.0,0.0
14:39:36.551, 0.057421875000000004,0.42109375000000004,9.83349609375,-1.8470703125,0.10527343750000001,9.49375,-3.41796875,5.615234375,11.16943359375,0.0,0.0,0.0
14:39:36.661, -0.26796875000000003,0.42109375000000004,9.819140625000001,-1.8662109375000002,0.0095703125,9.551171875000001,0.0,1.15966796875,7.2021484375,0.0,0.0,0.0
14:39:36.771, -0.16748046875,0.44501953125000004,9.8478515625,-1.8470703125,0.02392578125,9.527246093750001,-0.9765625,-0.8544921875,-1.3427734375,0.0,0.0,0.0
14:39:36.881, -0.13398437500000002,0.45458984375000006,9.7330078125,-1.91884765625,0.052636718750000006,9.51767578125,-1.953125,2.62451171875,-4.33349609375,0.0,0.0,0.0
14:39:36.991, -0.22490234375,0.54072265625,9.77607421875,-1.91884765625,0.052636718750000006,9.51767578125,-0.91552734375,0.3662109375,-4.39453125,0.0,0.0,0.0
14:39:37.102, -0.22968750000000002,0.6268554687500001,9.77607421875,-1.8279296875000002,0.0478515625,9.532031250000001,1.03759765625,0.06103515625,-0.79345703125,0.0,0.0,0.0
14:39:37.212, -0.172265625,0.5359375000000001,9.780859375,-1.83271484375,0.033496093750000004,9.5416015625,-0.18310546875,-0.732421875,-0.42724609375,0.0,0.0,0.0
14:39:37.321, -0.13876953125000002,0.440234375,9.72822265625,-1.894921875,0.08134765625000001,9.5224609375,-0.54931640625,0.54931640625,-2.9296875,0.0,0.0,0.0
14:39:37.431, -0.22968750000000002,0.4498046875,9.80478515625,-1.8470703125,0.057421875000000004,9.532031250000001,0.06103515625,1.40380859375,-6.7138671875,0.0,0.0,0.0
14:39:37.541, -0.27753906250000004,0.3349609375,9.85263671875,-1.8614257812500001,0.028710937500000002,9.5416015625,0.48828125,-1.0986328125,-11.04736328125,0.0,0.0,0.0
14:39:37.651, -0.287109375,0.43066406250000006,9.8095703125,-1.856640625,0.0765625,9.512890625,-3.7841796875,-2.8076171875,-19.83642578125,0.0,0.0,0.0
14:39:37.761, -0.2009765625,0.64599609375,9.819140625000001,-1.856640625,0.052636718750000006,9.49853515625,-0.54931640625,-3.5400390625,-16.05224609375,0.0,0.0,0.0
14:39:37.871, -0.03828125,0.76083984375,9.64208984375,-1.8422851562500002,0.09091796875000001,9.503320312500001,3.41796875,-1.89208984375,-5.06591796875,0.0,0.0,0.0
14:39:37.982, -0.08134765625000001,0.66513671875,9.8478515625,-1.856640625,0.03828125,9.5224609375,1.40380859375,-0.8544921875,2.86865234375,0.0,0.0,0.0
14:39:38.085, -0.0765625,0.49765625,9.699511718750001,-1.856640625,0.06699218750000001,9.512890625,-0.1220703125,0.1220703125,1.3427734375,0.0,0.0,0.0
14:39:38.195, -0.07177734375,0.56943359375,9.857421875,-1.8614257812500001,0.057421875000000004,9.53681640625,-0.732421875,1.03759765625,-0.30517578125,0.0,0.0,0.0
14:39:38.304, -0.13876953125000002,0.5311523437500001,9.670800781250001,-1.83271484375,0.052636718750000006,9.5416015625,0.0,0.48828125,0.1220703125,0.0,0.0,0.0
14:39:38.414, -0.11484375000000001,0.46894531250000004,9.790429687500001,-1.87099609375,0.057421875000000004,9.5607421875,-0.48828125,0.244140625,0.1220703125,0.0,0.0,0.0
14:39:38.524, -0.12919921875,0.49765625,9.7521484375,-1.8470703125,0.07177734375,9.49853515625,0.30517578125,1.708984375,-0.8544921875,0.0,0.0,0.0
14:39:38.634, -0.172265625,0.5837890625000001,9.742578125000001,-1.9044921875,0.033496093750000004,9.527246093750001,-0.06103515625,-0.8544921875,0.0,0.0,0.0,0.0
14:39:38.744, -0.21054687500000002,0.5550781250000001,9.77607421875,-1.8375000000000001,0.06699218750000001,9.551171875000001,-0.42724609375,0.06103515625,0.0,0.0,0.0,0.0
14:39:38.854, -0.07177734375,0.49287109375000004,9.70908203125,-1.9092773437500001,0.03828125,9.508105468750001,0.732421875,-1.953125,0.79345703125,0.0,0.0,0.0
14:39:38.964, -0.0765625,0.45937500000000003,9.704296875,-1.8757812500000002,0.03828125,9.512890625,0.30517578125,0.42724609375,0.48828125,0.0,0.0,0.0
14:39:39.074, -0.095703125,0.56943359375,9.747363281250001,-1.8757812500000002,0.03828125,9.5416015625,1.52587890625,1.3427734375,0.732421875,0.0,0.0,0.0
14:39:39.184, -0.16269531250000002,0.56943359375,9.82392578125,-1.87099609375,0.057421875000000004,9.503320312500001,-0.06103515625,-0.30517578125,0.8544921875,0.0,0.0,0.0
14:39:39.294, -0.18662109375000002,0.64599609375,10.197167968750001,-1.8662109375000002,0.08134765625000001,9.51767578125,3.23486328125,-7.75146484375,5.7373046875,0.0,0.0,0.0
14:39:39.404, 0.0861328125,0.69384765625,9.670800781250001,-1.8040039062500002,0.08134765625000001,9.51767578125,9.70458984375,-18.24951171875,11.5966796875,0.0,0.0,0.0
14:39:39.514, 0.36845703125,0.8421875000000001,9.68037109375,-1.8662109375000002,0.0478515625,9.45068359375,6.89697265625,-12.3291015625,11.1083984375,0.0,0.0,0.0
14:39:39.624, 0.6077148437500001,0.9139648437500001,9.46982421875,-1.8470703125,0.0095703125,9.58466796875,3.5400390625,-5.126953125,7.32421875,0.0,0.0,0.0
14:39:39.734, 0.68427734375,1.0240234375000001,9.9435546875,-1.8087890625,0.11962890625000001,9.51767578125,-5.2490234375,-2.50244140625,-0.06103515625,0.0,0.0,0.0
14:39:39.844, 1.41640625,0.58857421875,9.27841796875,-1.9140625000000002,0.03828125,9.56552734375,-11.71875,-7.4462890625,2.44140625,0.0,0.0,0.0
14:39:39.955, 0.9666015625000001,0.46894531250000004,9.938769531250001,-1.9236328125000002,-0.153125,9.53681640625,-1.0986328125,3.662109375,6.103515625,0.0,0.0,0.0
14:39:40.065, 0.7512695312500001,0.2009765625,9.627734375000001,-1.82314453125,0.10527343750000001,9.484179687500001,-3.11279296875,2.50244140625,1.28173828125,0.30517578125,-0.06103515625,0.1220703125
14:39:40.168, 0.74169921875,0.19619140625,10.0966796875,-1.8279296875000002,0.19140625,9.575097656250001,1.8310546875,2.13623046875,-4.5166015625,0.0,0.06103515625,0.06103515625
14:39:40.277, 0.8708984375000001,0.5120117187500001,9.49375,-1.8901367187500002,0.019140625,9.412402343750001,3.96728515625,-3.7841796875,-10.31494140625,0.06103515625,0.1220703125,0.0
14:39:40.387, 0.899609375,0.7512695312500001,9.8095703125,-1.8422851562500002,0.03828125,9.579882812500001,-0.79345703125,2.86865234375,-7.32421875,0.1220703125,-0.244140625,0.0
14:39:40.497, 0.7464843750000001,0.41630859375,9.7138671875,-1.8901367187500002,0.15791015625000002,9.46982421875,-1.64794921875,4.2724609375,-6.4697265625,-0.06103515625,0.0,0.0
14:39:40.608, 0.63642578125,0.47851562500000006,9.723437500000001,-1.8040039062500002,0.0861328125,9.5416015625,0.18310546875,3.72314453125,-8.97216796875,-0.18310546875,0.06103515625,-0.1220703125
14:39:40.719, 0.6077148437500001,0.784765625,9.742578125000001,-1.8757812500000002,0.03828125,9.479394531250001,-1.8310546875,4.21142578125,-5.9814453125,-0.30517578125,0.0,-0.06103515625
14:39:40.828, 0.55029296875,0.6412109375,9.886132812500001,-1.8422851562500002,0.06699218750000001,9.6373046875,-2.86865234375,5.4931640625,-0.9765625,-0.1220703125,0.0,0.0
14:39:40.939, 0.593359375,0.4498046875,9.627734375000001,-1.9092773437500001,-0.0765625,9.51767578125,-1.8310546875,1.03759765625,-0.244140625,0.0,0.1220703125,0.06103515625
14:39:41.048, 0.47373046875,0.3923828125,9.49853515625,-1.9044921875,0.028710937500000002,9.503320312500001,-7.080078125,8.23974609375,-0.54931640625,0.1220703125,0.0,-0.1220703125
14:39:41.158, 0.30146484375000004,-0.18183593750000002,9.61337890625,-1.8183593750000002,0.12919921875,9.51767578125,-13.61083984375,8.6669921875,-0.1220703125,0.0,0.06103515625,0.0
14:39:41.268, 0.5359375000000001,-0.2966796875,10.13974609375,-1.856640625,0.0,9.551171875000001,1.15966796875,8.23974609375,-13.00048828125,0.06103515625,0.06103515625,0.0
14:39:41.378, -0.21533203125000003,0.248828125,9.551171875000001,-1.9092773437500001,-0.02392578125,9.527246093750001,-4.5166015625,6.9580078125,-18.798828125,0.0,0.244140625,0.0
14:39:41.488, -0.24404296875,-0.04306640625,10.1158203125,-1.7896484375000001,0.1435546875,9.51767578125,-5.55419921875,-0.9765625,-7.9345703125,-0.1220703125,0.06103515625,-0.06103515625
14:39:41.597, -0.11962890625000001,-0.052636718750000006,9.790429687500001,-1.92841796875,0.0478515625,9.5703125,0.79345703125,0.79345703125,-4.08935546875,0.0,0.0,0.0
14:39:41.707, -0.24404296875,-0.22490234375,9.59423828125,-1.8470703125,-0.0478515625,9.49853515625,-1.5869140625,0.6103515625,-1.8310546875,0.0,0.0,0.0
14:39:41.817, -0.13876953125000002,-0.248828125,10.029687500000001,-1.8087890625,0.03828125,9.60859375,-0.732421875,0.8544921875,0.9765625,0.06103515625,-0.06103515625,0.0
14:39:41.928, -0.13398437500000002,-0.33974609375000003,9.503320312500001,-1.8757812500000002,0.04306640625,9.4650390625,0.48828125,0.244140625,1.03759765625,0.18310546875,0.0,0.0
14:39:42.039, -0.31103515625,-0.18183593750000002,10.06796875,-1.7322265625000002,0.02392578125,9.651660156250001,1.03759765625,1.220703125,-0.67138671875,0.06103515625,-0.30517578125,0.06103515625
14:39:42.143, -0.26318359375,-0.21054687500000002,9.85263671875,-1.8614257812500001,-0.04306640625,9.532031250000001,-1.46484375,0.732421875,2.0751953125,0.1220703125,-0.06103515625,0.06103515625
14:39:42.253, -0.30625,-0.28232421875,9.63251953125,-1.9044921875,0.033496093750000004,9.37890625,-0.42724609375,2.44140625,0.91552734375,0.30517578125,0.0,0.0
14:39:42.363, -0.29189453125000003,-0.17705078125,9.54638671875,-1.7609375,0.1244140625,9.53681640625,-1.15966796875,-1.220703125,0.6103515625,-0.244140625,-0.18310546875,0.0
14:39:42.472, -0.11484375000000001,-0.44501953125000004,10.45556640625,-1.9332031250000001,-0.03828125,9.431542968750001,-0.91552734375,1.40380859375,3.72314453125,-0.3662109375,0.0,0.0
14:39:42.582, -0.33974609375000003,-0.43544921875000003,9.216210937500001,-1.8662109375000002,-0.09091796875000001,9.4171875,3.60107421875,2.99072265625,-8.544921875,0.0,0.1220703125,0.0
14:39:42.692, -0.20576171875000002,-0.26796875000000003,10.01533203125,-1.8040039062500002,0.09091796875000001,9.72822265625,-2.197265625,-0.244140625,-23.98681640625,0.0,-0.30517578125,0.244140625
14:39:42.802, -0.30146484375000004,-0.440234375,9.512890625,-1.8997070312500002,0.10048828125,9.340625000000001,-1.46484375,4.08935546875,-27.587890625,0.0,0.1220703125,0.0
14:39:42.912, -0.6986328125000001,0.10048828125,9.66123046875,-1.8183593750000002,0.019140625,9.622949218750001,-4.69970703125,7.14111328125,-24.71923828125,-0.06103515625,-0.18310546875,-0.06103515625
14:39:43.022, -0.6077148437500001,0.9618164062500001,9.962695312500001,-1.83271484375,-0.06220703125,9.42197265625,-5.615234375,6.28662109375,6.53076171875,0.0,-0.1220703125,0.0
14:39:43.132, -0.8230468750000001,-0.8230468750000001,9.957910156250001,-1.8997070312500002,0.11005859375,9.5416015625,-2.38037109375,4.2724609375,23.49853515625,-0.18310546875,0.0,0.0
14:39:43.242, -0.74169921875,-0.784765625,9.9244140625,-1.8375000000000001,0.0861328125,9.5224609375,3.60107421875,3.96728515625,15.7470703125,0.0,-0.06103515625,0.18310546875
14:39:43.352, -0.899609375,-0.8469726562500001,9.80478515625,-1.8375000000000001,-0.019140625,9.49853515625,-0.67138671875,2.38037109375,-2.8076171875,-0.1220703125,-0.06103515625,-0.06103515625
14:39:43.462, -0.8613281250000001,-0.2009765625,9.64208984375,-1.8662109375000002,-0.00478515625,9.5607421875,0.9765625,-0.8544921875,-7.99560546875,0.0,0.0,-0.06103515625
14:39:43.573, -0.784765625,-0.2966796875,9.7330078125,-1.88056640625,0.095703125,9.51767578125,2.13623046875,-1.52587890625,-3.60107421875,0.18310546875,0.0,0.0
14:39:43.684, -0.8421875000000001,-0.28232421875,9.790429687500001,-1.87099609375,0.07177734375,9.575097656250001,1.46484375,-1.953125,-5.9814453125,-0.06103515625,-0.06103515625,0.06103515625
14:39:43.793, -0.68427734375,-0.07177734375,9.589453125,-1.8040039062500002,0.052636718750000006,9.503320312500001,5.31005859375,-2.13623046875,-2.99072265625,-0.06103515625,0.0,0.0
14:39:43.903, -0.6603515625,-0.02392578125,9.790429687500001,-1.8997070312500002,0.014355468750000001,9.51767578125,-1.03759765625,0.18310546875,2.685546875,0.0,0.0,0.0
14:39:44.014, -0.669921875,-0.24404296875,9.66123046875,-1.9092773437500001,0.028710937500000002,9.58466796875,-0.54931640625,0.42724609375,0.48828125,-0.18310546875,0.0,-0.06103515625
14:39:44.117, -0.9331054687500001,-0.47851562500000006,9.933984375000001,-1.8470703125,-0.02392578125,9.4458984375,-0.79345703125,-0.732421875,-1.28173828125,-0.06103515625,0.0,0.0
14:39:44.228, -0.6794921875000001,-0.22490234375,9.575097656250001,-1.88056640625,0.10527343750000001,9.603808593750001,4.39453125,-4.33349609375,-1.28173828125,-0.1220703125,0.0,0.0
14:39:44.340, -0.63642578125,-0.06220703125,9.819140625000001,-1.9332031250000001,0.052636718750000006,9.48896484375,7.9345703125,-1.3427734375,5.859375,0.06103515625,0.0,-0.1220703125
14:39:44.452, -0.765625,0.27753906250000004,9.532031250000001,-1.82314453125,0.0478515625,9.551171875000001,5.92041015625,0.6103515625,13.85498046875,0.0,-0.1220703125,0.0
14:39:44.564, -0.6555664062500001,0.27275390625,9.99140625,-1.8997070312500002,0.03828125,9.479394531250001,10.19287109375,-1.5869140625,18.9208984375,0.06103515625,0.18310546875,-0.06103515625
14:39:44.675, 0.0861328125,0.5120117187500001,10.125390625000001,-1.9619140625000002,0.052636718750000006,9.555957031250001,4.638671875,-12.26806640625,8.6669921875,0.0,-0.18310546875,0.06103515625
14:39:44.787, -0.5359375000000001,0.42109375000000004,10.75703125,-1.8422851562500002,0.0478515625,9.512890625,-6.34765625,18.73779296875,-2.3193359375,-0.06103515625,-0.1220703125,0.0
14:39:44.898, -0.6029296875000001,0.33974609375000003,9.3693359375,-1.8375000000000001,0.0095703125,9.45068359375,-4.45556640625,-2.9296875,0.0,0.0,-0.06103515625,0.0
14:39:45.009, -0.8182617187500001,0.35888671875,9.8765625,-1.8901367187500002,0.028710937500000002,9.551171875000001,-5.859375,7.2021484375,8.36181640625,0.0,0.0,0.0
14:39:45.121, -0.8852539062500001,0.19619140625,9.80478515625,-1.8183593750000002,0.02392578125,9.49853515625,-1.52587890625,0.18310546875,0.48828125,0.0,0.0,0.0
14:39:45.232, -0.76083984375,0.033496093750000004,9.7521484375,-1.88056640625,0.052636718750000006,9.5607421875,1.220703125,-1.46484375,-0.48828125,0.0,0.0,0.0
14:39:45.343, -0.8517578125,0.21054687500000002,9.6564453125,-1.9092773437500001,0.057421875000000004,9.455468750000001,-3.173828125,2.9296875,-5.859375,0.0,0.0,0.0
14:39:45.455, -0.899609375,0.1435546875,10.130175781250001,-1.83271484375,0.0478515625,9.527246093750001,-7.32421875,2.50244140625,-5.126953125,0.0,0.0,0.0
14:39:45.567, -0.784765625,-0.19619140625,9.46982421875,-1.8614257812500001,0.1244140625,9.555957031250001,1.708984375,5.0048828125,-1.708984375,0.0,0.0,0.0
14:39:45.679, -1.0718750000000001,-0.26318359375,9.838281250000001,-1.8375000000000001,-0.014355468750000001,9.46982421875,2.25830078125,0.79345703125,0.30517578125,0.0,0.0,0.0
14:39:45.790, -1.2345703125,-0.36845703125,9.68994140625,-1.8997070312500002,0.057421875000000004,9.527246093750001,6.16455078125,1.0986328125,-1.0986328125,0.0,0.0,0.0
14:39:45.902, -1.3350585937500001,0.08134765625000001,9.627734375000001,-1.8614257812500001,0.028710937500000002,9.532031250000001,9.8876953125,6.04248046875,4.5166015625,0.0,0.0,0.0
14:39:46.013, -1.0814453125,0.5120117187500001,9.9052734375,-1.8662109375000002,0.052636718750000006,9.48896484375,9.8876953125,-4.39453125,5.7373046875,0.0,0.0,0.0
14:39:46.117, -0.87568359375,0.7464843750000001,9.527246093750001,-1.8422851562500002,0.04306640625,9.53681640625,10.8642578125,-5.31005859375,3.60107421875,0.0,0.0,0.0
14:39:46.227, -0.8852539062500001,0.669921875,9.503320312500001,-1.8614257812500001,0.04306640625,9.508105468750001,0.30517578125,3.173828125,3.23486328125,0.0,0.0,0.0
14:39:46.339, -1.1101562500000002,0.74169921875,9.8478515625,-1.9092773437500001,0.0478515625,9.532031250000001,-1.40380859375,2.9296875,5.4931640625,0.0,0.0,0.0
