Time, AccX1, AccY1, AccZ1, AccX2, AccY2, AccZ2, AngVelX1, AngVelY1, AngVelZ1, AngVelX2, AngVelY2, AngVelZ2
10:46:21.337, 0.0,0.0,0.0,0.0,0.0,0.0,0.0,0.0,0.0,0.0,0.0,0.0
10:46:21.447, 0.34931640625000004,0.172265625,9.99619140625,2.7083984375,-0.68427734375,9.398046875,1.89208984375,-3.41796875,49.9267578125,-0.06103515625,-0.06103515625,0.0
10:46:21.567, 0.6316406250000001,0.03828125,9.857421875,2.6988281250000004,-0.6986328125000001,9.4171875,-0.42724609375,-12.939453125,40.71044921875,0.0,0.0,0.0
10:46:21.679, 0.97138671875,-0.11005859375,9.68515625,2.71318359375,-0.68427734375,9.398046875,1.28173828125,-10.3759765625,29.60205078125,0.0,0.0,0.0
10:46:21.806, 1.2393554687500001,0.0765625,9.599023437500001,2.71318359375,-0.71298828125,9.412402343750001,0.67138671875,-3.90625,21.3623046875,0.0,0.0,0.0
10:46:21.920, 1.1915039062500001,0.18662109375000002,9.599023437500001,2.71318359375,-0.7034179687500001,9.412402343750001,-3.7841796875,3.60107421875,23.3154296875,0.0,0.0,0.0
10:46:22.031, 1.0623046875000002,-0.04306640625,9.63251953125,2.7227539062500004,-0.6794921875000001,9.388476562500001,0.54931640625,6.16455078125,21.42333984375,0.0,0.0,0.0
10:46:22.143, 0.9570312500000001,-0.2009765625,9.75693359375,2.7083984375,-0.6794921875000001,9.398046875,-1.0986328125,-1.8310546875,9.27734375,0.0,0.0,0.0
10:46:22.247, 1.01923828125,-0.09091796875000001,9.6564453125,2.6940429687500003,-0.66513671875,9.388476562500001,0.0,0.30517578125,3.47900390625,0.0,0.0,0.0
10:46:22.357, 1.0383789062500002,-0.2583984375,9.814355468750001,2.737109375,-0.6986328125000001,9.39326171875,0.54931640625,1.46484375,-4.94384765625,0.0,0.0,0.0
10:46:22.469, 0.9953125,-0.54072265625,9.60859375,2.7179687500000003,-0.7034179687500001,9.388476562500001,0.3662109375,1.0986328125,-23.13232421875,0.0,0.0,0.0
10:46:22.579, 0.9474609375,-0.32060546875,9.5703125,2.71318359375,-0.69384765625,9.383691406250001,-6.7138671875,8.60595703125,-45.2880859375,0.0,0.0,0.0
10:46:22.689, 0.41152343750000003,-0.20576171875000002,9.77607421875,2.6988281250000004,-0.7034179687500001,9.398046875,-7.01904296875,14.892578125,-55.7861328125,0.0,0.0,0.0
10:46:22.800, 0.0765625,0.03828125,9.866992187500001,2.7179687500000003,-0.669921875,9.39326171875,-6.40869140625,11.53564453125,-53.16162109375,0.0,0.0,0.0
10:46:22.912, -0.02392578125,-0.172265625,9.94833984375,2.7083984375,-0.6747070312500001,9.40283203125,-1.15966796875,7.6904296875,-50.47607421875,0.0,0.0,0.0
10:46:23.023, -0.0095703125,-0.16269531250000002,9.862207031250001,2.7179687500000003,-0.68427734375,9.37412109375,-0.3662109375,2.62451171875,-49.13330078125,0.0,0.0,0.0
10:46:23.134, 0.06220703125,-0.2966796875,9.7330078125,2.7227539062500004,-0.6794921875000001,9.35498046875,-0.18310546875,-0.6103515625,-52.978515625,0.0,0.0,0.0
10:46:23.244, -0.014355468750000001,0.019140625,9.56552734375,2.71318359375,-0.6794921875000001,9.37412109375,1.64794921875,5.18798828125,-51.45263671875,0.0,0.0,0.0
10:46:23.356, -0.12919921875,0.10048828125,9.886132812500001,2.7083984375,-0.7034179687500001,9.3693359375,1.40380859375,2.685546875,-38.63525390625,0.0,0.0,0.0
10:46:23.465, -0.08134765625000001,0.19619140625,9.771289062500001,2.71318359375,-0.6890625,9.39326171875,0.8544921875,0.9765625,-25.634765625,0.0,0.0,0.0
10:46:23.576, -0.12919921875,0.17705078125,9.790429687500001,2.7179687500000003,-0.6890625,9.3693359375,0.9765625,1.3427734375,-11.71875,0.0,0.0,0.0
10:46:23.686, -0.095703125,0.07177734375,9.723437500000001,2.7179687500000003,-0.6986328125000001,9.383691406250001,-0.06103515625,0.0,7.87353515625,0.0,0.0,0.0
10:46:23.797, -0.052636718750000006,-0.019140625,9.7330078125,2.7179687500000003,-0.6986328125000001,9.383691406250001,-2.25830078125,0.42724609375,12.26806640625,0.0,0.0,0.0
10:46:23.907, -0.0861328125,-0.2201171875,9.771289062500001,2.737109375,-0.708203125,9.398046875,-3.5400390625,0.91552734375,12.51220703125,0.0,0.0,0.0
10:46:24.017, -0.13398437500000002,-0.41630859375,9.780859375,2.70361328125,-0.68427734375,9.37890625,-3.47900390625,0.3662109375,7.38525390625,0.0,0.0,0.0
10:46:24.128, -0.11484375000000001,-0.46894531250000004,9.8287109375,2.70361328125,-0.66513671875,9.412402343750001,-1.52587890625,0.54931640625,1.3427734375,0.0,0.0,0.0
10:46:24.231, -0.16269531250000002,-0.35888671875,9.83349609375,2.70361328125,-0.71298828125,9.364550781250001,-0.30517578125,0.6103515625,-0.30517578125,0.0,0.0,0.0
10:46:24.341, -0.16748046875,-0.23925781250000003,9.70908203125,2.7083984375,-0.68427734375,9.383691406250001,-0.06103515625,-0.54931640625,1.28173828125,0.0,0.0,0.0
10:46:24.451, -0.11484375000000001,-0.28232421875,9.795214843750001,2.7179687500000003,-0.6986328125000001,9.383691406250001,-0.67138671875,-1.28173828125,2.197265625,0.0,0.0,0.0
10:46:24.561, -0.11962890625000001,-0.36845703125,9.718652343750001,2.71318359375,-0.6890625,9.412402343750001,-0.732421875,-1.953125,1.8310546875,0.0,0.0,0.0
10:46:24.671, -0.07177734375,-0.35888671875,9.80478515625,2.71318359375,-0.69384765625,9.364550781250001,-0.3662109375,-1.15966796875,0.8544921875,0.0,0.0,0.0
10:46:24.782, -0.03828125,-0.32539062500000004,9.780859375,2.7466796875000004,-0.6747070312500001,9.39326171875,-0.48828125,-0.42724609375,0.30517578125,0.0,0.0,0.0
10:46:24.891, -0.03828125,-0.3349609375,9.76171875,2.6892578125,-0.6747070312500001,9.37412109375,-0.6103515625,-0.244140625,0.91552734375,0.0,0.0,0.0
10:46:25.002, -0.04306640625,-0.32060546875,9.723437500000001,2.73232421875,-0.6986328125000001,9.39326171875,-1.3427734375,0.1220703125,1.0986328125,0.0,0.0,0.0
10:46:25.113, -0.07177734375,-0.401953125,9.747363281250001,2.7275390625,-0.6890625,9.388476562500001,-0.06103515625,0.67138671875,0.91552734375,0.0,0.0,0.0
10:46:25.223, -0.11005859375,-0.39716796875000004,9.73779296875,2.70361328125,-0.6890625,9.40283203125,-0.79345703125,1.15966796875,-0.48828125,0.0,0.0,0.0
10:46:25.332, -0.07177734375,-0.39716796875000004,9.8765625,2.7083984375,-0.708203125,9.364550781250001,-0.9765625,-0.6103515625,0.91552734375,0.0,0.0,0.0
10:46:25.442, -0.10048828125,-0.39716796875000004,9.766503906250001,2.6988281250000004,-0.669921875,9.388476562500001,0.67138671875,0.244140625,0.244140625,0.0,0.0,0.0
10:46:25.552, -0.0861328125,-0.2966796875,9.80478515625,2.7179687500000003,-0.71298828125,9.364550781250001,1.64794921875,-1.28173828125,0.67138671875,0.0,0.0,0.0
10:46:25.662, -0.04306640625,-0.3349609375,9.742578125000001,2.7466796875000004,-0.69384765625,9.398046875,-0.91552734375,-0.732421875,0.8544921875,0.0,0.0,0.0
10:46:25.771, 0.0,-0.38759765625000003,9.814355468750001,2.6988281250000004,-0.6507812500000001,9.35498046875,1.03759765625,-1.8310546875,1.03759765625,0.0,0.0,0.0
10:46:25.881, 0.028710937500000002,-0.46894531250000004,9.7521484375,2.775390625,-0.7177734375,9.45068359375,0.244140625,-2.197265625,0.8544921875,0.0,0.0,0.0
10:46:25.992, 0.057421875000000004,-0.2009765625,9.85263671875,2.6988281250000004,-0.6747070312500001,9.37890625,-0.06103515625,-4.45556640625,0.48828125,-0.06103515625,0.06103515625,0.0
10:46:26.103, 0.153125,-0.2009765625,9.699511718750001,2.7179687500000003,-0.66513671875,9.364550781250001,0.3662109375,-8.9111328125,0.79345703125,0.06103515625,0.0,0.06103515625
10:46:26.207, 0.31582031250000003,-0.31582031250000003,9.88134765625,2.70361328125,-0.6747070312500001,9.398046875,0.0,-7.38525390625,2.50244140625,0.0,0.0,-0.06103515625
10:46:26.317, 0.5311523437500001,-0.25361328125000004,9.742578125000001,2.7083984375,-0.6986328125000001,9.42197265625,2.13623046875,-10.009765625,1.708984375,-0.06103515625,-0.06103515625,0.0
10:46:26.426, 0.7273437500000001,-0.287109375,9.603808593750001,2.7227539062500004,-0.69384765625,9.34541015625,1.28173828125,-11.77978515625,-0.54931640625,-0.06103515625,0.0,0.0
10:46:26.536, 0.92353515625,-0.22968750000000002,9.747363281250001,2.7083984375,-0.669921875,9.40283203125,1.0986328125,-12.939453125,-3.0517578125,-0.06103515625,-0.06103515625,0.0
10:46:26.647, 1.18671875,-0.1244140625,9.4458984375,2.73232421875,-0.6986328125000001,9.40283203125,1.52587890625,-2.8076171875,-4.0283203125,0.0,0.0,0.0
10:46:26.758, 1.1819335937500002,-0.0095703125,9.72822265625,2.7227539062500004,-0.7225585937500001,9.40283203125,2.74658203125,-4.82177734375,-1.64794921875,0.0,-0.06103515625,0.0
10:46:26.869, 1.1436523437500001,-0.10527343750000001,9.7521484375,2.73232421875,-0.6890625,9.39326171875,-0.30517578125,-0.79345703125,0.18310546875,-0.1220703125,0.0,-0.06103515625
10:46:26.980, 1.16279296875,-0.10048828125,9.742578125000001,2.7179687500000003,-0.6747070312500001,9.398046875,0.0,0.30517578125,0.244140625,0.0,0.0,0.0
10:46:27.090, 1.17236328125,-0.1435546875,9.747363281250001,2.7275390625,-0.708203125,9.364550781250001,-0.79345703125,2.50244140625,-0.8544921875,0.0,0.0,0.0
10:46:27.201, 1.129296875,-0.10527343750000001,9.771289062500001,2.71318359375,-0.6986328125000001,9.407617187500001,-1.3427734375,0.79345703125,-0.91552734375,0.0,0.0,0.0
10:46:27.311, 1.1340820312500002,-0.21054687500000002,9.8765625,2.6988281250000004,-0.69384765625,9.39326171875,-1.953125,1.64794921875,-1.28173828125,0.0,0.0,0.0
10:46:27.422, 1.16279296875,-0.10527343750000001,9.42197265625,2.6988281250000004,-0.6986328125000001,9.398046875,0.42724609375,7.6904296875,0.30517578125,0.0,0.0,0.0
10:46:27.533, 0.9857421875000001,-0.23447265625000002,9.96748046875,2.7083984375,-0.7225585937500001,9.37890625,1.28173828125,-2.13623046875,-0.18310546875,0.0,0.0,0.0
10:46:27.643, 0.976171875,-0.10048828125,9.718652343750001,2.71318359375,-0.68427734375,9.407617187500001,-3.2958984375,-1.708984375,-2.13623046875,0.0,0.0,0.0
10:46:27.753, 1.1005859375,-0.18183593750000002,9.651660156250001,2.7227539062500004,-0.6986328125000001,9.359765625000001,-1.8310546875,0.91552734375,-2.25830078125,0.0,0.0,0.0
10:46:27.863, 1.091015625,-0.2009765625,9.704296875,2.6988281250000004,-0.6986328125000001,9.407617187500001,-0.244140625,1.220703125,-1.15966796875,0.0,0.0,0.0
10:46:27.973, 1.00966796875,-0.26318359375,9.819140625000001,2.7179687500000003,-0.6890625,9.398046875,-0.8544921875,1.40380859375,-0.30517578125,0.0,0.0,0.0
10:46:28.083, 1.0000976562500001,-0.23447265625000002,9.80478515625,2.73232421875,-0.6890625,9.37890625,-1.3427734375,2.99072265625,-0.79345703125,0.0,0.0,0.0
10:46:28.187, 0.9570312500000001,-0.2201171875,9.7521484375,2.70361328125,-0.71298828125,9.383691406250001,-0.91552734375,0.244140625,-1.3427734375,0.0,0.0,0.0
10:46:28.297, 0.9283203125,-0.21533203125000003,9.72822265625,2.7179687500000003,-0.68427734375,9.37890625,-1.3427734375,1.52587890625,-0.67138671875,0.0,0.0,0.0
10:46:28.407, 0.8900390625000001,-0.27275390625,9.78564453125,2.70361328125,-0.6986328125000001,9.412402343750001,-1.15966796875,0.48828125,0.8544921875,0.0,0.0,0.0
10:46:28.518, 0.8948242187500001,-0.27753906250000004,9.723437500000001,2.7275390625,-0.669921875,9.388476562500001,-1.03759765625,0.3662109375,1.28173828125,0.0,0.0,0.0
10:46:28.628, 0.8852539062500001,-0.33017578125,9.8,2.71318359375,-0.69384765625,9.407617187500001,-1.708984375,-0.1220703125,2.3193359375,0.0,0.0,0.0
10:46:28.739, 0.90439453125,-0.3828125,9.76171875,2.70361328125,-0.6747070312500001,9.398046875,-0.67138671875,0.6103515625,1.220703125,0.0,0.0,0.0
10:46:28.849, 0.88046875,-0.3828125,9.699511718750001,2.70361328125,-0.6890625,9.4171875,-0.91552734375,0.3662109375,1.46484375,0.0,0.0,0.0
10:46:28.959, 0.8708984375000001,-0.39716796875000004,9.70908203125,2.7179687500000003,-0.6794921875000001,9.383691406250001,-0.91552734375,0.6103515625,1.15966796875,0.0,0.0,0.0
10:46:29.069, 0.80869140625,-0.36367187500000003,9.771289062500001,2.6892578125,-0.6794921875000001,9.3693359375,-0.3662109375,0.42724609375,0.48828125,0.0,0.0,0.0
10:46:29.179, 0.87568359375,-0.41152343750000003,9.7521484375,2.6988281250000004,-0.6794921875000001,9.37412109375,-0.1220703125,-1.0986328125,0.67138671875,0.0,0.0,0.0
10:46:29.289, 0.8900390625000001,-0.42109375000000004,9.75693359375,2.6940429687500003,-0.6794921875000001,9.39326171875,0.30517578125,-0.3662109375,-0.42724609375,0.0,0.0,0.0
10:46:29.399, 0.8948242187500001,-0.3923828125,9.742578125000001,2.70361328125,-0.6794921875000001,9.37890625,0.9765625,-0.42724609375,-0.732421875,0.0,0.0,0.0
10:46:29.509, 0.85654296875,-0.39716796875000004,9.766503906250001,2.7418945312500003,-0.6747070312500001,9.4171875,0.30517578125,0.6103515625,-2.38037109375,0.0,0.0,0.0
10:46:29.619, 0.899609375,-0.35888671875,9.68994140625,2.6988281250000004,-0.669921875,9.388476562500001,-0.06103515625,-0.48828125,-1.15966796875,0.0,0.0,0.0
10:46:29.729, 0.8900390625000001,-0.3349609375,9.718652343750001,2.70361328125,-0.6747070312500001,9.4171875,0.42724609375,0.06103515625,0.06103515625,0.0,0.0,0.0
10:46:29.839, 0.87568359375,-0.38759765625000003,9.77607421875,2.71318359375,-0.669921875,9.383691406250001,-0.18310546875,-0.18310546875,0.244140625,0.0,0.0,0.0
10:46:29.949, 0.899609375,-0.39716796875000004,9.72822265625,2.6940429687500003,-0.6794921875000001,9.364550781250001,-0.6103515625,0.3662109375,0.244140625,0.0,0.0,0.0
10:46:30.058, 0.88046875,-0.401953125,9.766503906250001,2.7275390625,-0.7034179687500001,9.388476562500001,-0.42724609375,0.732421875,1.220703125,0.0,0.0,0.0
10:46:30.178, 0.8182617187500001,-0.39716796875000004,9.723437500000001,2.7227539062500004,-0.7034179687500001,9.388476562500001,0.30517578125,0.18310546875,0.30517578125,0.0,0.0,0.0
10:46:30.303, 0.82783203125,-0.40673828125000006,9.862207031250001,2.71318359375,-0.669921875,9.37412109375,0.732421875,-0.42724609375,-0.18310546875,0.0,0.0,0.0
10:46:30.413, 1.0144531250000002,-0.26318359375,9.512890625,2.71318359375,-0.69384765625,9.388476562500001,0.3662109375,7.32421875,0.79345703125,0.0,0.0,0.0
10:46:30.524, 1.00966796875,-0.33974609375000003,9.56552734375,2.7179687500000003,-0.669921875,9.37412109375,0.06103515625,13.12255859375,2.44140625,0.0,0.0,0.0
10:46:30.634, 0.33974609375000003,-0.38759765625000003,9.723437500000001,2.73232421875,-0.6794921875000001,9.37412109375,-1.03759765625,13.0615234375,1.64794921875,0.0,0.0,0.0
10:46:30.744, 0.095703125,-0.41630859375,9.957910156250001,2.7275390625,-0.68427734375,9.383691406250001,-0.9765625,9.521484375,0.42724609375,0.0,0.0,0.0
10:46:30.854, -0.19140625,-0.46894531250000004,10.12060546875,2.71318359375,-0.68427734375,9.398046875,-0.48828125,0.0,0.42724609375,0.0,0.0,0.0
10:46:30.964, 0.13398437500000002,-0.43544921875000003,9.87177734375,2.71318359375,-0.6507812500000001,9.383691406250001,2.25830078125,-18.85986328125,-3.11279296875,0.0,0.0,0.0
10:46:31.075, 0.7225585937500001,-0.3541015625,9.8287109375,2.7275390625,-0.6603515625,9.42197265625,1.64794921875,-18.310546875,-4.150390625,0.0,0.0,0.0
10:46:31.186, 1.129296875,-0.27753906250000004,9.508105468750001,2.7227539062500004,-0.708203125,9.37412109375,2.25830078125,-12.939453125,-4.69970703125,0.0,0.0,0.0
10:46:31.295, 1.41640625,-0.13398437500000002,9.3310546875,2.7275390625,-0.66513671875,9.39326171875,1.03759765625,-1.77001953125,-2.3193359375,0.0,0.0,0.0
10:46:31.405, 1.2297851562500002,-0.12919921875,9.5224609375,2.7466796875000004,-0.66513671875,9.383691406250001,0.0,9.21630859375,1.40380859375,0.0,0.0,0.0
10:46:31.515, 0.784765625,-0.2009765625,9.8765625,2.70361328125,-0.6890625,9.37412109375,-3.11279296875,17.63916015625,5.2490234375,0.0,0.0,0.0
10:46:31.626, 0.27275390625,-0.37802734375,9.857421875,2.6988281250000004,-0.6986328125000001,9.37890625,-0.48828125,13.36669921875,5.126953125,0.0,0.0,0.0
10:46:31.736, 0.03828125,-0.3923828125,9.9052734375,2.73232421875,-0.71298828125,9.388476562500001,-1.40380859375,6.4697265625,2.86865234375,0.0,0.0,0.0
10:46:31.847, -0.08134765625000001,-0.41630859375,9.99619140625,2.7083984375,-0.6794921875000001,9.39326171875,-0.48828125,-0.18310546875,0.30517578125,0.0,0.0,0.0
10:46:31.958, 0.033496093750000004,-0.4498046875,9.957910156250001,2.7227539062500004,-0.68427734375,9.398046875,0.3662109375,-11.04736328125,-1.3427734375,0.0,0.0,0.0
10:46:32.069, 0.5837890625000001,-0.34453125,9.670800781250001,2.7275390625,-0.6794921875000001,9.3693359375,0.79345703125,-11.5966796875,-2.5634765625,0.0,0.0,0.0
10:46:32.172, 0.8230468750000001,-0.19619140625,9.551171875000001,2.71318359375,-0.6890625,9.37412109375,0.67138671875,-4.82177734375,0.0,0.0,0.0,0.0
10:46:32.283, 0.8613281250000001,-0.25361328125000004,9.503320312500001,2.70361328125,-0.6794921875000001,9.40283203125,-0.42724609375,-1.40380859375,1.52587890625,0.0,0.0,0.0
10:46:32.394, 0.7751953125000001,-0.440234375,9.70908203125,2.7275390625,-0.669921875,9.398046875,-0.3662109375,3.96728515625,1.64794921875,0.0,0.0,0.0
10:46:32.504, 0.5263671875,-0.401953125,9.7138671875,2.7179687500000003,-0.7034179687500001,9.364550781250001,0.91552734375,6.40869140625,-0.18310546875,0.0,0.0,0.0
10:46:32.613, 0.3828125,-0.35888671875,9.886132812500001,2.73232421875,-0.68427734375,9.383691406250001,0.18310546875,2.50244140625,-0.6103515625,0.0,0.0,0.0
10:46:32.723, 0.36367187500000003,-0.32539062500000004,9.780859375,2.70361328125,-0.708203125,9.398046875,-0.18310546875,1.52587890625,-0.79345703125,0.0,0.0,0.0
10:46:32.834, 0.34931640625000004,-0.36845703125,9.795214843750001,2.7466796875000004,-0.6794921875000001,9.407617187500001,0.6103515625,0.67138671875,-2.13623046875,0.0,0.0,0.0
10:46:32.944, 0.32060546875,-0.32060546875,9.68037109375,2.7179687500000003,-0.6794921875000001,9.35498046875,0.244140625,1.52587890625,-2.99072265625,0.0,0.0,0.0
10:46:33.055, 0.32539062500000004,-0.25361328125000004,9.675585937500001,2.7227539062500004,-0.7034179687500001,9.383691406250001,0.06103515625,2.197265625,-2.50244140625,0.0,0.0,0.0
10:46:33.165, 0.27275390625,-0.26796875000000003,9.814355468750001,2.6988281250000004,-0.69384765625,9.3693359375,0.1220703125,2.8076171875,-0.06103515625,0.0,0.0,0.0
10:46:33.274, 0.172265625,-0.3541015625,9.82392578125,2.737109375,-0.7034179687500001,9.407617187500001,0.30517578125,1.3427734375,1.03759765625,0.0,0.0,0.0
10:46:33.385, 0.153125,-0.36845703125,10.0009765625,2.7083984375,-0.708203125,9.383691406250001,0.0,-3.41796875,-1.03759765625,0.0,0.0,0.0
10:46:33.495, 0.5263671875,-0.6125,9.866992187500001,2.7179687500000003,-0.6747070312500001,9.388476562500001,-0.244140625,-36.31591796875,-10.31494140625,0.0,0.0,0.0
10:46:33.604, 0.7369140625,-0.19140625,9.120507812500001,2.7179687500000003,-0.6794921875000001,9.388476562500001,-2.86865234375,53.1005859375,-7.32421875,0.0,0.0,0.0
10:46:33.714, -0.12919921875,-0.23447265625000002,10.154101562500001,2.7275390625,-0.6890625,9.412402343750001,-0.1220703125,55.84716796875,-2.44140625,0.0,0.0,0.0
10:46:33.824, -1.3302734375,-0.33017578125,9.92919921875,2.7227539062500004,-0.6986328125000001,9.39326171875,0.54931640625,20.5078125,0.06103515625,0.0,0.0,0.0
10:46:33.934, -1.5599609375,-0.30625,10.173242187500001,2.6892578125,-0.68427734375,9.4171875,-1.46484375,9.46044921875,3.60107421875,0.0,0.0,0.0
10:46:34.045, -1.4690429687500002,-0.46894531250000004,9.780859375,2.73232421875,-0.6986328125000001,9.388476562500001,-1.15966796875,-0.42724609375,3.41796875,0.0,0.0,0.0
10:46:34.155, -1.244140625,-0.42587890625,9.599023437500001,2.7418945312500003,-0.7034179687500001,9.398046875,-0.3662109375,-5.37109375,-0.1220703125,0.0,0.0,0.0
10:46:34.258, -1.18671875,-0.46894531250000004,9.68515625,2.6988281250000004,-0.7034179687500001,9.383691406250001,-0.244140625,-1.89208984375,0.244140625,0.0,0.0,0.0
10:46:34.368, -1.16279296875,-0.440234375,9.704296875,2.70361328125,-0.6794921875000001,9.37890625,1.3427734375,-3.47900390625,-0.3662109375,0.0,0.0,0.0
10:46:34.478, -1.091015625,-0.50244140625,9.771289062500001,2.7179687500000003,-0.6603515625,9.40283203125,2.0751953125,-4.0283203125,-1.0986328125,0.0,0.0,0.0
10:46:34.588, -0.95224609375,-0.32539062500000004,9.68037109375,2.71318359375,-0.669921875,9.39326171875,1.0986328125,-4.5166015625,-2.62451171875,0.0,0.0,0.0
10:46:34.698, -0.9426757812500001,-0.26318359375,9.61337890625,2.73232421875,-0.6603515625,9.383691406250001,-1.28173828125,0.244140625,0.1220703125,0.0,0.0,0.0
10:46:34.808, -1.0240234375000001,-0.43544921875000003,9.6181640625,2.7179687500000003,-0.6986328125000001,9.388476562500001,-0.3662109375,1.15966796875,1.708984375,0.0,0.0,0.0
10:46:34.918, -1.03359375,-0.440234375,9.77607421875,2.71318359375,-0.6890625,9.37890625,-0.42724609375,-0.3662109375,0.18310546875,0.0,0.0,0.0
10:46:35.028, -1.0048828125,-0.42587890625,9.70908203125,2.7179687500000003,-0.69384765625,9.39326171875,-0.54931640625,-2.62451171875,0.1220703125,0.0,0.0,0.0
10:46:35.138, -0.92353515625,-0.45937500000000003,9.646875000000001,2.6940429687500003,-0.708203125,9.388476562500001,0.0,-1.0986328125,-0.18310546875,0.0,0.0,0.0
10:46:35.248, -0.92353515625,-0.44501953125000004,9.72822265625,2.7083984375,-0.68427734375,9.39326171875,0.9765625,-0.732421875,-0.30517578125,0.0,0.0,0.0
10:46:35.358, -0.9091796875000001,-0.41630859375,9.75693359375,2.73232421875,-0.6986328125000001,9.359765625000001,1.03759765625,-0.42724609375,-0.244140625,0.0,0.0,0.0
10:46:35.468, -0.9187500000000001,-0.34453125,9.704296875,2.71318359375,-0.69384765625,9.37890625,0.42724609375,-0.9765625,-0.42724609375,0.0,0.0,0.0
10:46:35.578, -0.6986328125000001,-0.38759765625000003,9.474609375,2.737109375,-0.7034179687500001,9.35498046875,1.28173828125,-3.72314453125,0.54931640625,0.0,0.0,0.0
10:46:35.689, -0.8613281250000001,-0.33017578125,9.220996093750001,2.6988281250000004,-0.6747070312500001,9.4171875,-0.91552734375,17.88330078125,2.13623046875,0.0,0.0,0.0
10:46:35.798, -1.5264648437500001,-0.45458984375000006,10.40771484375,2.7227539062500004,-0.708203125,9.383691406250001,-0.8544921875,13.61083984375,2.86865234375,0.0,0.0,0.0
10:46:35.909, -1.41162109375,-0.42109375000000004,9.742578125000001,2.70361328125,-0.6890625,9.39326171875,0.9765625,-26.85546875,-5.31005859375,0.0,0.0,0.0
10:46:36.019, -0.49765625,-0.2583984375,9.6373046875,2.70361328125,-0.6986328125000001,9.388476562500001,0.42724609375,-28.1982421875,-3.96728515625,0.0,0.0,0.0
10:46:36.129, 0.08134765625000001,-0.30625,9.412402343750001,2.73232421875,-0.6603515625,9.37890625,-2.74658203125,-18.1884765625,-1.220703125,0.0,0.0,0.0
10:46:36.233, 0.14833984375,-0.3541015625,9.283203125,2.70361328125,-0.69384765625,9.37890625,0.42724609375,0.6103515625,2.685546875,0.0,0.0,0.0
10:46:36.343, -0.10527343750000001,-0.41630859375,9.843066406250001,2.71318359375,-0.6747070312500001,9.398046875,-0.48828125,5.615234375,5.2490234375,0.0,0.0,0.0
10:46:36.453, -0.27753906250000004,-0.5359375000000001,9.80478515625,2.6940429687500003,-0.6747070312500001,9.364550781250001,0.06103515625,5.31005859375,2.99072265625,0.0,0.0,0.0
10:46:36.564, -0.35888671875,-0.47851562500000006,9.90048828125,2.7179687500000003,-0.68427734375,9.388476562500001,1.953125,2.685546875,0.3662109375,0.0,0.0,0.0
10:46:36.674, -0.35888671875,-0.33017578125,9.814355468750001,2.7179687500000003,-0.7369140625,9.39326171875,0.67138671875,-1.0986328125,-1.708984375,0.0,0.0,0.0
10:46:36.784, -0.31582031250000003,-0.29189453125000003,9.7521484375,2.73232421875,-0.6555664062500001,9.359765625000001,-1.708984375,-1.28173828125,1.46484375,0.0,0.0,0.0
10:46:36.894, -0.22490234375,-0.5072265625000001,9.68515625,2.7083984375,-0.66513671875,9.40283203125,-0.42724609375,-1.220703125,1.40380859375,0.0,0.0,0.0
10:46:37.004, -0.28232421875,-0.46416015625,9.747363281250001,2.71318359375,-0.7034179687500001,9.383691406250001,0.8544921875,-0.732421875,0.0,0.0,0.0,0.0
10:46:37.130, -0.2583984375,-0.34453125,9.72822265625,2.71318359375,-0.7225585937500001,9.383691406250001,-0.3662109375,-0.79345703125,-0.3662109375,0.0,0.0,0.0
10:46:37.241, -0.21533203125000003,-0.39716796875000004,9.747363281250001,2.6892578125,-0.6603515625,9.412402343750001,-1.15966796875,-1.0986328125,1.953125,0.0,0.0,0.0
10:46:37.350, -0.2009765625,-0.39716796875000004,9.7521484375,2.70361328125,-0.669921875,9.359765625000001,0.67138671875,0.67138671875,1.0986328125,0.0,0.0,0.0
10:46:37.460, -0.31103515625,-0.36845703125,9.603808593750001,2.6892578125,-0.708203125,9.383691406250001,-0.06103515625,0.3662109375,-1.03759765625,0.0,0.0,0.0
10:46:37.570, -0.24404296875,-0.35888671875,9.819140625000001,2.6988281250000004,-0.7034179687500001,9.40283203125,-1.77001953125,0.42724609375,0.67138671875,0.0,0.0,0.0
10:46:37.680, -0.2009765625,-0.47373046875,9.694726562500001,2.68447265625,-0.6603515625,9.39326171875,0.18310546875,0.0,2.01416015625,0.0,0.0,0.0
10:46:37.790, -0.21533203125000003,-0.36367187500000003,9.8,2.7227539062500004,-0.7034179687500001,9.412402343750001,1.64794921875,-0.8544921875,-1.8310546875,0.0,0.0,0.0
10:46:37.900, -0.153125,-0.248828125,9.742578125000001,2.73232421875,-0.7225585937500001,9.398046875,0.91552734375,-0.67138671875,0.06103515625,0.0,0.0,0.0
10:46:38.010, -0.19140625,-0.37324218750000004,9.7521484375,2.7179687500000003,-0.669921875,9.407617187500001,-0.42724609375,-1.15966796875,2.5634765625,0.0,0.0,0.0
10:46:38.121, -0.17705078125,-0.45937500000000003,9.747363281250001,2.6892578125,-0.66513671875,9.364550781250001,-0.1220703125,-0.67138671875,0.8544921875,0.0,0.0,0.0
10:46:38.224, -0.19619140625,-0.401953125,9.766503906250001,2.71318359375,-0.68427734375,9.359765625000001,0.8544921875,-1.220703125,-1.3427734375,0.0,0.0,0.0
10:46:38.333, -0.18662109375000002,-0.35888671875,9.80478515625,2.7179687500000003,-0.6890625,9.39326171875,0.42724609375,-2.0751953125,0.0,0.0,0.0,0.0
10:46:38.445, 0.18183593750000002,-0.3828125,9.9052734375,2.7083984375,-0.6890625,9.388476562500001,1.3427734375,-2.50244140625,0.3662109375,0.0,0.0,0.0
10:46:38.555, -0.00478515625,-0.34453125,9.72822265625,2.7083984375,-0.68427734375,9.37412109375,1.0986328125,-2.3193359375,1.220703125,0.0,0.0,0.0
10:46:38.664, 0.019140625,-0.36367187500000003,9.7138671875,2.71318359375,-0.6794921875000001,9.37890625,-0.244140625,-2.74658203125,0.91552734375,0.0,0.0,0.0
10:46:38.774, 0.11484375000000001,-0.3923828125,9.742578125000001,2.7083984375,-0.68427734375,9.37890625,-0.42724609375,-1.40380859375,0.244140625,0.0,0.0,0.0
10:46:38.884, 0.13398437500000002,-0.36845703125,9.704296875,2.73232421875,-0.7177734375,9.4171875,1.3427734375,0.91552734375,-1.77001953125,0.0,0.0,0.0
10:46:38.995, -0.00478515625,-0.3541015625,9.699511718750001,2.7179687500000003,-0.68427734375,9.3693359375,-1.0986328125,0.3662109375,-0.1220703125,0.0,0.0,0.0
10:46:39.105, 0.0478515625,-0.3541015625,9.771289062500001,2.6940429687500003,-0.669921875,9.388476562500001,-0.91552734375,-0.48828125,1.28173828125,0.0,0.0,0.0
10:46:39.215, 0.07177734375,-0.58857421875,9.670800781250001,2.7179687500000003,-0.66513671875,9.40283203125,0.42724609375,0.1220703125,-0.42724609375,0.0,0.0,0.0
10:46:39.325, 0.019140625,-0.32060546875,9.771289062500001,2.68447265625,-0.68427734375,9.39326171875,1.52587890625,0.06103515625,-2.13623046875,0.0,0.0,0.0
10:46:39.435, 0.08134765625000001,-0.30146484375000004,9.7330078125,2.7083984375,-0.6603515625,9.412402343750001,-0.3662109375,-0.1220703125,0.3662109375,0.0,0.0,0.0
10:46:39.545, 0.0478515625,-0.43066406250000006,9.76171875,2.6940429687500003,-0.6890625,9.3693359375,0.244140625,0.30517578125,-0.3662109375,0.0,0.0,0.0
10:46:39.655, 0.04306640625,-0.28232421875,9.8095703125,2.7275390625,-0.7034179687500001,9.40283203125,0.79345703125,0.18310546875,-1.15966796875,0.0,0.0,0.0
10:46:39.764, -0.00478515625,-0.2966796875,9.72822265625,2.7275390625,-0.6794921875000001,9.39326171875,0.30517578125,0.18310546875,0.3662109375,0.0,0.0,0.0
10:46:39.875, 0.04306640625,-0.28232421875,9.82392578125,2.7227539062500004,-0.6747070312500001,9.431542968750001,-0.8544921875,0.0,0.244140625,0.0,0.0,0.0
10:46:39.985, 0.0478515625,-0.30625,9.73779296875,2.71318359375,-0.6794921875000001,9.37890625,0.18310546875,-0.244140625,0.6103515625,0.0,0.0,0.0
10:46:40.096, 0.02392578125,-0.31582031250000003,9.8287109375,2.737109375,-0.6986328125000001,9.3693359375,0.0,0.0,-0.48828125,0.0,0.0,0.0
10:46:40.199, 0.00478515625,-0.25361328125000004,9.59423828125,2.7179687500000003,-0.6747070312500001,9.40283203125,-0.91552734375,-0.244140625,0.0,0.0,0.0,0.0
10:46:40.309, 0.0861328125,-0.33017578125,9.61337890625,2.7179687500000003,-0.6747070312500001,9.37412109375,-0.42724609375,-0.18310546875,1.5869140625,0.0,0.0,0.0
10:46:40.419, 0.033496093750000004,-0.3923828125,9.819140625000001,2.7083984375,-0.6555664062500001,9.388476562500001,0.3662109375,0.42724609375,-0.48828125,0.0,0.0,0.0
10:46:40.529, 0.052636718750000006,-0.35888671875,9.814355468750001,2.6988281250000004,-0.7225585937500001,9.364550781250001,0.48828125,0.732421875,-0.48828125,0.0,0.0,0.0
10:46:40.639, 0.03828125,-0.41630859375,9.97705078125,2.7083984375,-0.669921875,9.40283203125,1.15966796875,-1.708984375,-1.220703125,0.0,0.0,0.0
10:46:40.749, 0.095703125,-0.13876953125000002,9.780859375,2.71318359375,-0.6794921875000001,9.407617187500001,2.8076171875,0.732421875,2.74658203125,0.0,0.0,0.0
10:46:40.859, -0.0478515625,-0.38759765625000003,9.72822265625,2.68447265625,-0.69384765625,9.4171875,-2.38037109375,5.4931640625,3.662109375,0.0,0.0,0.0
10:46:40.963, -0.13398437500000002,-0.5359375000000001,9.795214843750001,2.7083984375,-0.68427734375,9.359765625000001,0.67138671875,3.60107421875,-1.77001953125,0.0,0.0,0.0
10:46:41.073, -0.3349609375,-0.36845703125,10.1349609375,2.71318359375,-0.6890625,9.37412109375,1.0986328125,0.91552734375,-3.5400390625,0.0,0.0,0.0
10:46:41.184, -0.19619140625,-0.19140625,9.64208984375,2.7083984375,-0.68427734375,9.407617187500001,2.74658203125,1.28173828125,-5.31005859375,0.0,0.0,0.0
10:46:41.294, -0.09091796875000001,-0.019140625,9.75693359375,2.6892578125,-0.68427734375,9.388476562500001,4.69970703125,-2.99072265625,-1.52587890625,0.0,0.0,0.0
10:46:41.404, -0.03828125,-0.04306640625,9.790429687500001,2.71318359375,-0.71298828125,9.383691406250001,-1.708984375,-0.18310546875,-1.15966796875,0.0,0.0,0.0
10:46:41.514, -0.06699218750000001,-0.248828125,9.455468750000001,2.6988281250000004,-0.6747070312500001,9.388476562500001,-2.0751953125,3.173828125,0.6103515625,0.0,0.0,0.0
10:46:41.624, -0.2583984375,-0.26796875000000003,9.99619140625,2.6940429687500003,-0.71298828125,9.39326171875,2.0751953125,5.615234375,1.46484375,0.0,0.0,0.0
10:46:41.734, -0.41630859375,-0.0095703125,9.957910156250001,2.7179687500000003,-0.68427734375,9.383691406250001,0.79345703125,-1.46484375,-2.62451171875,0.0,0.0,0.0
10:46:41.843, -0.37802734375,-0.1435546875,9.83349609375,2.7275390625,-0.7034179687500001,9.37890625,-0.732421875,-4.21142578125,-0.48828125,0.0,0.0,0.0
10:46:41.954, -0.153125,-0.26796875000000003,9.64208984375,2.73232421875,-0.68427734375,9.4267578125,0.1220703125,-3.11279296875,0.3662109375,0.0,0.0,0.0
10:46:42.064, -0.13876953125000002,-0.13876953125000002,9.790429687500001,2.7083984375,-0.6747070312500001,9.383691406250001,-1.5869140625,-1.8310546875,0.0,0.244140625,0.244140625,0.0
10:46:42.166, -0.033496093750000004,-0.19619140625,9.7330078125,2.6796875,-0.69384765625,9.407617187500001,-2.01416015625,-2.0751953125,2.25830078125,0.30517578125,-0.18310546875,-0.1220703125
10:46:42.276, -0.019140625,-0.22490234375,9.704296875,2.6940429687500003,-0.6794921875000001,9.398046875,-1.52587890625,0.0,5.7373046875,-0.06103515625,-0.1220703125,-0.18310546875
10:46:42.386, -0.11005859375,-0.32539062500000004,9.66123046875,2.68447265625,-0.6747070312500001,9.37412109375,-1.15966796875,1.3427734375,4.33349609375,0.0,-0.1220703125,-0.18310546875
10:46:42.497, -0.172265625,-0.45458984375000006,9.766503906250001,2.70361328125,-0.6794921875000001,9.39326171875,-4.638671875,2.25830078125,1.220703125,0.0,-0.1220703125,-0.06103515625
10:46:42.607, -0.2201171875,-0.46894531250000004,9.68037109375,2.70361328125,-0.6555664062500001,9.398046875,-1.8310546875,1.3427734375,0.79345703125,-0.06103515625,0.0,0.0
10:46:42.718, -0.26318359375,-0.49287109375000004,9.8478515625,2.6796875,-0.6747070312500001,9.39326171875,1.220703125,1.89208984375,2.74658203125,0.0,0.0,-0.1220703125
10:46:42.827, -0.15791015625000002,-0.3541015625,9.66123046875,2.71318359375,-0.66513671875,9.3693359375,-1.3427734375,-1.28173828125,-0.1220703125,0.0,-0.06103515625,-0.1220703125
10:46:42.937, -0.18662109375000002,-0.39716796875000004,9.68994140625,2.6940429687500003,-0.66513671875,9.407617187500001,1.220703125,2.0751953125,-1.40380859375,-0.06103515625,-0.06103515625,-0.1220703125
10:46:43.047, -0.16748046875,-0.19140625,9.5607421875,2.7466796875000004,-0.6747070312500001,9.398046875,1.03759765625,0.244140625,2.197265625,-0.06103515625,0.0,0.06103515625
10:46:43.158, -0.22490234375,-0.2966796875,9.7521484375,2.68447265625,-0.6890625,9.383691406250001,-2.50244140625,1.220703125,2.8076171875,0.0,0.0,0.0
10:46:43.269, -0.27753906250000004,-0.3923828125,9.718652343750001,2.6940429687500003,-0.6507812500000001,9.4267578125,-5.37109375,2.44140625,3.41796875,0.0,0.0,0.0
10:46:43.378, -0.21054687500000002,-0.39716796875000004,9.7330078125,2.7227539062500004,-0.6603515625,9.398046875,-1.3427734375,1.03759765625,6.89697265625,0.0,0.0,0.0
10:46:43.489, -0.33974609375000003,-0.6268554687500001,10.01533203125,2.6988281250000004,-0.64599609375,9.407617187500001,2.13623046875,0.67138671875,5.31005859375,0.0,0.0,0.0
10:46:43.593, -0.41152343750000003,-0.5359375000000001,9.54638671875,2.6940429687500003,-0.66513671875,9.383691406250001,0.8544921875,-7.75146484375,4.57763671875,0.0,0.0,0.0
10:46:43.703, -0.16748046875,-0.49765625,9.694726562500001,2.7227539062500004,-0.6603515625,9.431542968750001,0.0,-1.220703125,2.3193359375,0.0,0.0,0.0
10:46:43.813, -0.0765625,-0.4498046875,9.666015625,2.7658203125000003,-0.68427734375,9.37412109375,-3.23486328125,0.91552734375,-1.03759765625,0.0,0.0,0.0
10:46:43.939, -0.2201171875,-0.5263671875,9.82392578125,2.73232421875,-0.6555664062500001,9.407617187500001,-0.6103515625,3.96728515625,0.732421875,0.0,0.0,0.0
10:46:44.050, -0.287109375,-0.46894531250000004,9.75693359375,2.6988281250000004,-0.6794921875000001,9.40283203125,1.03759765625,0.91552734375,0.3662109375,0.0,0.0,0.0
10:46:44.153, -0.30625,-0.52158203125,9.771289062500001,2.7275390625,-0.6603515625,9.388476562500001,-0.48828125,0.3662109375,1.15966796875,0.0,0.0,0.0
10:46:44.263, -0.287109375,-0.5359375000000001,9.7138671875,2.68447265625,-0.68427734375,9.364550781250001,-0.48828125,0.244140625,-1.8310546875,0.0,0.0,0.0
10:46:44.373, -0.287109375,-0.5837890625000001,9.742578125000001,2.70361328125,-0.6603515625,9.39326171875,0.0,1.8310546875,1.15966796875,0.0,0.0,0.0
10:46:44.483, -0.30146484375000004,-0.5550781250000001,9.766503906250001,2.7083984375,-0.64599609375,9.40283203125,0.732421875,0.48828125,-0.8544921875,0.0,0.0,0.0
10:46:44.594, -0.32060546875,-0.47851562500000006,9.819140625000001,2.6988281250000004,-0.6555664062500001,9.383691406250001,0.1220703125,1.220703125,-1.52587890625,0.0,0.0,0.0
10:46:44.704, -0.36367187500000003,-0.46894531250000004,9.7138671875,2.71318359375,-0.68427734375,9.359765625000001,0.0,0.1220703125,0.30517578125,0.0,0.0,0.0
10:46:44.814, -0.29189453125000003,-0.47851562500000006,9.8095703125,2.71318359375,-0.66513671875,9.383691406250001,-0.732421875,-0.18310546875,-0.244140625,0.0,0.0,0.0
10:46:44.924, -0.33017578125,-0.5263671875,9.723437500000001,2.7179687500000003,-0.64599609375,9.37412109375,0.3662109375,0.6103515625,0.42724609375,0.0,0.0,0.0
10:46:45.033, -0.35888671875,-0.54072265625,9.742578125000001,2.6892578125,-0.68427734375,9.398046875,0.1220703125,0.1220703125,-0.67138671875,0.0,0.0,0.0
10:46:45.143, -0.36367187500000003,-0.49287109375000004,9.742578125000001,2.7418945312500003,-0.6603515625,9.412402343750001,0.18310546875,0.3662109375,0.244140625,0.0,0.0,0.0
10:46:45.253, -0.34931640625000004,-0.49287109375000004,9.7330078125,2.6988281250000004,-0.669921875,9.37890625,0.48828125,1.03759765625,0.1220703125,0.0,0.0,0.0
10:46:45.363, -0.37324218750000004,-0.4498046875,9.68515625,2.73232421875,-0.69384765625,9.398046875,0.1220703125,0.67138671875,-1.0986328125,0.0,0.0,0.0
10:46:45.472, -0.35888671875,-0.43066406250000006,9.7330078125,2.7083984375,-0.6507812500000001,9.39326171875,-1.28173828125,-0.30517578125,0.67138671875,0.0,0.0,0.0
10:46:45.582, -0.37802734375,-0.6029296875000001,9.747363281250001,2.7083984375,-0.63642578125,9.37412109375,-0.3662109375,0.67138671875,0.67138671875,0.0,0.0,0.0
10:46:45.693, -0.3541015625,-0.49765625,9.747363281250001,2.7083984375,-0.64599609375,9.407617187500001,-0.6103515625,0.8544921875,0.244140625,0.0,0.0,0.0
10:46:45.803, -0.43066406250000006,-0.5263671875,9.742578125000001,2.71318359375,-0.63642578125,9.407617187500001,0.0,1.15966796875,0.9765625,0.0,0.0,0.0
10:46:45.913, -0.49765625,-0.5646484375,9.790429687500001,2.7083984375,-0.669921875,9.39326171875,-0.1220703125,0.18310546875,-0.244140625,0.0,0.0,0.0
10:46:46.023, -0.45937500000000003,-0.5120117187500001,9.747363281250001,2.7275390625,-0.6747070312500001,9.407617187500001,0.1220703125,-0.67138671875,0.30517578125,0.0,0.0,0.0
10:46:46.134, -0.42587890625,-0.5598632812500001,9.886132812500001,2.6988281250000004,-0.66513671875,9.398046875,1.77001953125,-5.2490234375,-0.6103515625,0.0,0.0,0.0
10:46:46.236, -0.30146484375000004,-0.4880859375,9.622949218750001,2.7083984375,-0.64599609375,9.4267578125,0.42724609375,-2.50244140625,-1.220703125,0.0,0.0,0.0
10:46:46.346, -0.27753906250000004,-0.5120117187500001,9.87177734375,2.70361328125,-0.6603515625,9.35498046875,-1.28173828125,0.0,0.0,0.0,0.0,0.0
10:46:46.455, -0.36845703125,-0.4880859375,9.75693359375,2.7083984375,-0.669921875,9.37890625,-0.6103515625,0.732421875,-1.0986328125,0.0,0.0,0.0
10:46:46.566, -0.34931640625000004,-0.45937500000000003,9.72822265625,2.7083984375,-0.6603515625,9.39326171875,0.91552734375,-0.30517578125,0.67138671875,0.0,0.0,0.0
10:46:46.677, -0.27275390625,-0.45937500000000003,9.70908203125,2.7179687500000003,-0.68427734375,9.407617187500001,-1.03759765625,-0.06103515625,0.9765625,0.0,0.0,0.0
10:46:46.786, -0.36845703125,-0.56943359375,9.819140625000001,2.7227539062500004,-0.669921875,9.407617187500001,-0.9765625,1.89208984375,0.244140625,0.0,0.0,0.0
10:46:46.897, -0.29189453125000003,-0.5455078125,9.61337890625,2.7179687500000003,-0.6747070312500001,9.39326171875,-0.6103515625,0.732421875,0.67138671875,0.0,0.0,0.0
10:46:47.007, -0.17705078125,-0.55029296875,9.575097656250001,2.71318359375,-0.66513671875,9.37412109375,0.91552734375,5.31005859375,0.3662109375,0.0,0.0,0.0
10:46:47.117, -0.033496093750000004,-0.5455078125,9.15400390625,2.7179687500000003,-0.6603515625,9.388476562500001,-4.150390625,27.9541015625,-2.25830078125,0.0,0.0,0.0
10:46:47.227, -1.2393554687500001,-0.6507812500000001,9.3310546875,2.7227539062500004,-0.68427734375,9.407617187500001,-4.0283203125,33.203125,-3.41796875,0.0,0.0,0.0
10:46:47.337, -2.33037109375,-0.8469726562500001,9.555957031250001,2.6940429687500003,-0.64599609375,9.40283203125,-3.23486328125,29.541015625,-3.72314453125,0.0,0.0,0.0
10:46:47.447, -3.1390625,-0.8948242187500001,9.910058593750001,2.6988281250000004,-0.6603515625,9.364550781250001,0.18310546875,18.4326171875,-4.82177734375,0.0,0.0,0.0
10:46:47.557, -3.30654296875,-0.765625,9.90048828125,2.7083984375,-0.6603515625,9.40283203125,3.5400390625,-7.14111328125,-3.90625,0.0,0.0,0.0
10:46:47.667, -2.10546875,-0.47851562500000006,9.7330078125,2.6892578125,-0.6747070312500001,9.37890625,4.39453125,-27.28271484375,0.0,0.0,0.0,0.0
10:46:47.777, -1.16279296875,-0.47373046875,9.407617187500001,2.71318359375,-0.6603515625,9.398046875,4.150390625,-30.029296875,6.16455078125,0.0,0.0,0.0
10:46:47.886, -0.6029296875000001,-0.42587890625,9.49853515625,2.7179687500000003,-0.669921875,9.431542968750001,0.9765625,-22.27783203125,8.1787109375,0.0,0.0,0.0
10:46:47.997, -0.23447265625000002,-0.5837890625000001,9.474609375,2.7083984375,-0.6555664062500001,9.383691406250001,-0.42724609375,-14.0380859375,5.92041015625,0.0,0.0,0.0
10:46:48.107, -0.19619140625,-0.5790039062500001,9.5416015625,2.6988281250000004,-0.66513671875,9.40283203125,-2.86865234375,-5.55419921875,1.40380859375,0.0,0.0,0.0
10:46:48.210, -0.401953125,-0.6029296875000001,9.8095703125,2.7227539062500004,-0.68427734375,9.40283203125,-2.25830078125,3.47900390625,1.5869140625,0.0,0.0,0.0
10:46:48.320, -0.5263671875,-0.6507812500000001,9.742578125000001,2.7179687500000003,-0.66513671875,9.37412109375,-2.38037109375,2.38037109375,0.8544921875,0.0,0.0,0.0
10:46:48.430, -0.57421875,-0.6890625,9.85263671875,2.71318359375,-0.708203125,9.407617187500001,-2.0751953125,-0.1220703125,0.8544921875,0.0,0.0,0.0
10:46:48.539, -0.46416015625,-0.7751953125000001,9.70908203125,2.6796875,-0.6747070312500001,9.398046875,-4.150390625,0.42724609375,3.0517578125,0.0,0.0,0.0
10:46:48.649, -0.5072265625000001,-0.82783203125,9.670800781250001,2.7083984375,-0.66513671875,9.383691406250001,-1.708984375,0.1220703125,0.79345703125,0.0,0.0,0.0
10:46:48.759, -0.52158203125,-0.765625,9.68994140625,2.6796875,-0.66513671875,9.398046875,0.91552734375,-0.244140625,-0.6103515625,0.0,0.0,0.0
10:46:48.869, -0.5311523437500001,-0.73212890625,9.699511718750001,2.6892578125,-0.66513671875,9.398046875,0.0,0.732421875,0.06103515625,0.0,0.0,0.0
10:46:48.980, -0.56943359375,-0.6794921875000001,9.780859375,3.4692382812500004,-1.3494140625000002,10.63740234375,-0.79345703125,0.8544921875,-0.18310546875,1.15966796875,-3.173828125,-3.60107421875
10:46:49.091, -0.4498046875,-0.7464843750000001,9.44111328125,2.8184570312500004,-1.02880859375,9.24970703125,1.220703125,-0.30517578125,-0.9765625,1.40380859375,-1.64794921875,-0.18310546875
10:46:49.201, -0.5646484375,-0.5646484375,9.838281250000001,2.660546875,-0.73212890625,9.1396484375,-3.96728515625,2.685546875,3.11279296875,-0.1220703125,0.18310546875,-0.18310546875
10:46:49.311, -0.64599609375,-0.7991210937500001,9.80478515625,2.73232421875,-0.593359375,9.512890625,-4.2724609375,0.0,4.45556640625,-0.18310546875,0.06103515625,0.0
10:46:49.421, -0.6890625,-0.899609375,9.68037109375,2.6892578125,-0.6747070312500001,9.42197265625,2.197265625,-0.1220703125,-1.3427734375,-0.06103515625,0.0,0.1220703125
10:46:49.531, -0.5550781250000001,-0.7704101562500001,9.843066406250001,2.71318359375,-0.7225585937500001,9.407617187500001,1.40380859375,-1.708984375,-3.173828125,0.18310546875,0.06103515625,0.0
10:46:49.641, -0.5550781250000001,-0.63642578125,9.603808593750001,2.7083984375,-0.6316406250000001,9.40283203125,-0.06103515625,-0.18310546875,0.79345703125,-0.06103515625,0.0,0.0
10:46:49.751, -0.5646484375,-0.9905273437500001,9.771289062500001,2.68447265625,-0.66513671875,9.4267578125,0.9765625,0.6103515625,2.50244140625,-0.18310546875,-0.18310546875,-0.1220703125
10:46:49.861, -0.6220703125,-0.74169921875,9.666015625,2.7179687500000003,-0.708203125,9.335839843750001,1.953125,1.64794921875,-4.638671875,-0.18310546875,-0.1220703125,0.06103515625
10:46:49.971, -0.5646484375,-0.64599609375,9.6564453125,2.7083984375,-0.6794921875000001,9.412402343750001,-2.5634765625,-0.54931640625,-0.732421875,0.06103515625,0.0,-0.1220703125
10:46:50.082, -0.5837890625000001,-0.8374023437500001,9.68037109375,2.68447265625,-0.6316406250000001,9.398046875,0.91552734375,1.0986328125,2.0751953125,0.0,0.0,0.0
10:46:50.185, -0.593359375,-0.5072265625000001,9.819140625000001,2.70361328125,-0.6555664062500001,9.388476562500001,4.150390625,1.28173828125,2.3193359375,0.0,-0.06103515625,0.0
10:46:50.296, -0.63642578125,-0.8374023437500001,9.8,2.70361328125,-0.69384765625,9.383691406250001,-1.64794921875,0.54931640625,-1.52587890625,0.0,0.06103515625,0.06103515625
10:46:50.406, -0.7560546875,-0.77998046875,9.532031250000001,2.71318359375,-0.6603515625,9.383691406250001,-4.08935546875,2.5634765625,1.03759765625,0.0,0.0,0.0
10:46:50.517, -0.784765625,-1.129296875,9.8,2.6940429687500003,-0.6890625,9.39326171875,-0.244140625,0.06103515625,6.16455078125,0.0,0.0,0.0
10:46:50.628, -0.6986328125000001,-1.1388671875,9.771289062500001,2.7227539062500004,-0.66513671875,9.4171875,5.2490234375,-1.8310546875,0.0,0.0,0.0,0.0
10:46:50.755, -0.74169921875,-0.5837890625000001,9.838281250000001,2.6988281250000004,-0.669921875,9.40283203125,2.86865234375,0.244140625,-5.43212890625,0.0,0.0,0.0
10:46:50.865, -0.68427734375,-0.52158203125,9.603808593750001,2.70361328125,-0.6555664062500001,9.398046875,1.77001953125,-0.18310546875,-0.91552734375,0.0,0.0,0.0
10:46:50.976, -0.64599609375,-0.6220703125,9.718652343750001,2.7083984375,-0.6507812500000001,9.407617187500001,-0.42724609375,0.30517578125,0.0,0.0,0.0,0.0
10:46:51.085, -0.71298828125,-0.6268554687500001,9.68037109375,2.6988281250000004,-0.66513671875,9.39326171875,-2.62451171875,1.708984375,1.03759765625,0.0,0.0,0.0
10:46:51.196, -0.7751953125000001,-0.7991210937500001,9.7521484375,2.73232421875,-0.66513671875,9.39326171875,-1.28173828125,0.8544921875,3.11279296875,0.0,0.0,0.0
10:46:51.307, -0.7704101562500001,-0.8613281250000001,9.771289062500001,2.6940429687500003,-0.6603515625,9.40283203125,-0.3662109375,0.06103515625,1.8310546875,0.0,0.0,0.0
10:46:51.417, -0.76083984375,-0.7895507812500001,9.66123046875,2.6940429687500003,-0.669921875,9.3693359375,0.54931640625,0.8544921875,-0.42724609375,0.0,0.0,0.0
10:46:51.527, -0.7560546875,-0.7177734375,9.699511718750001,2.7179687500000003,-0.6555664062500001,9.398046875,0.30517578125,-0.30517578125,0.18310546875,0.0,0.0,0.0
10:46:51.637, -0.7177734375,-0.7464843750000001,9.699511718750001,2.7227539062500004,-0.669921875,9.39326171875,-0.244140625,0.48828125,0.54931640625,0.0,0.0,0.0
10:46:51.747, -0.7751953125000001,-0.71298828125,9.7330078125,2.71318359375,-0.64599609375,9.407617187500001,-0.8544921875,0.9765625,0.3662109375,0.0,0.0,0.0
10:46:51.851, -0.7751953125000001,-0.7464843750000001,9.77607421875,2.7083984375,-0.6794921875000001,9.383691406250001,-0.67138671875,0.244140625,0.3662109375,0.0,0.0,0.0
10:46:51.955, -0.80390625,-0.80390625,9.699511718750001,2.70361328125,-0.669921875,9.407617187500001,-0.06103515625,0.3662109375,0.48828125,0.0,0.0,0.0
10:46:52.066, -0.80390625,-0.73212890625,9.70908203125,2.68447265625,-0.6507812500000001,9.37412109375,-0.67138671875,-0.54931640625,0.06103515625,0.0,0.0,0.0
10:46:52.170, -0.7895507812500001,-0.8134765625000001,9.666015625,2.68447265625,-0.66513671875,9.407617187500001,-0.732421875,-0.54931640625,1.3427734375,0.0,0.0,0.0
10:46:52.281, -0.76083984375,-0.8661132812500001,9.7330078125,2.6892578125,-0.68427734375,9.37890625,0.54931640625,0.42724609375,0.0,0.0,0.0,0.0
10:46:52.392, -0.7991210937500001,-0.7751953125000001,9.771289062500001,2.7275390625,-0.6603515625,9.39326171875,-1.3427734375,1.03759765625,-1.89208984375,0.0,0.0,0.0
10:46:52.504, -0.87568359375,-0.7751953125000001,9.5607421875,2.6940429687500003,-0.68427734375,9.39326171875,0.42724609375,1.708984375,2.685546875,0.0,0.0,0.0
10:46:52.614, -0.8374023437500001,-0.8708984375000001,9.790429687500001,2.737109375,-0.66513671875,9.431542968750001,0.244140625,-0.732421875,-0.6103515625,0.0,0.0,0.0
10:46:52.727, -0.82783203125,-0.74169921875,9.64208984375,2.70361328125,-0.66513671875,9.388476562500001,0.06103515625,-0.30517578125,-1.46484375,0.0,0.0,0.0
10:46:52.837, -0.8326171875,-0.8517578125,9.6181640625,2.7179687500000003,-0.66513671875,9.412402343750001,-0.06103515625,0.244140625,0.18310546875,0.0,0.0,0.0
10:46:52.949, -0.82783203125,-0.8421875000000001,9.704296875,2.7083984375,-0.6794921875000001,9.398046875,0.6103515625,-0.06103515625,-0.8544921875,0.0,0.0,0.0
10:46:53.060, -0.8517578125,-0.69384765625,9.742578125000001,2.7083984375,-0.66513671875,9.383691406250001,-0.18310546875,0.244140625,-0.18310546875,0.0,0.0,0.0
10:46:53.170, -0.8469726562500001,-0.7943359375000001,9.699511718750001,2.7083984375,-0.6603515625,9.383691406250001,0.79345703125,0.48828125,0.1220703125,0.0,0.0,0.0
10:46:53.281, -0.80869140625,-0.64599609375,9.7138671875,2.6940429687500003,-0.6555664062500001,9.37890625,-0.79345703125,0.1220703125,0.54931640625,0.0,0.0,0.0
10:46:53.393, -0.8613281250000001,-0.8134765625000001,9.66123046875,2.70361328125,-0.6603515625,9.3693359375,-0.48828125,0.91552734375,0.6103515625,0.0,0.0,0.0
10:46:53.505, -0.85654296875,-0.76083984375,9.723437500000001,2.7083984375,-0.669921875,9.37890625,0.54931640625,0.06103515625,-0.9765625,0.0,0.0,0.0
10:46:53.616, -0.8374023437500001,-0.669921875,9.675585937500001,2.6988281250000004,-0.6986328125000001,9.34541015625,0.0,0.0,-0.06103515625,0.0,0.0,0.0
10:46:53.728, -0.8661132812500001,-0.765625,9.742578125000001,2.70361328125,-0.66513671875,9.3693359375,-0.6103515625,-0.18310546875,0.54931640625,0.0,0.0,0.0
10:46:53.839, -0.9139648437500001,-0.8421875000000001,9.814355468750001,2.7227539062500004,-0.669921875,9.39326171875,1.220703125,0.30517578125,-1.220703125,0.0,0.0,0.0
10:46:53.949, -0.71298828125,-0.8134765625000001,9.73779296875,2.70361328125,-0.69384765625,9.412402343750001,1.77001953125,-5.7373046875,-1.708984375,0.0,0.0,0.0
10:46:54.061, -0.6555664062500001,-0.49287109375000004,9.340625000000001,2.68447265625,-0.6747070312500001,9.388476562500001,-0.54931640625,1.52587890625,-4.2724609375,0.0,0.0,0.0
10:46:54.165, -0.9331054687500001,-0.5455078125,9.9244140625,2.70361328125,-0.6220703125,9.40283203125,0.48828125,7.62939453125,3.0517578125,0.0,0.0,0.0
10:46:54.275, -0.9139648437500001,-0.7177734375,9.76171875,2.6749023437500004,-0.69384765625,9.388476562500001,-1.15966796875,-0.48828125,4.39453125,0.0,0.0,0.0
10:46:54.387, -0.85654296875,-0.7273437500000001,9.670800781250001,2.6796875,-0.66513671875,9.388476562500001,-2.50244140625,-1.28173828125,2.5634765625,0.0,0.0,0.0
10:46:54.498, -0.9187500000000001,-0.7273437500000001,9.723437500000001,2.737109375,-0.6555664062500001,9.4171875,-2.197265625,0.48828125,0.48828125,0.0,0.0,0.0
10:46:54.608, -0.8900390625000001,-0.8613281250000001,9.670800781250001,2.70361328125,-0.6555664062500001,9.359765625000001,-1.77001953125,-2.0751953125,1.46484375,0.0,0.0,0.0
10:46:54.718, -0.87568359375,-0.88046875,9.73779296875,2.7179687500000003,-0.7034179687500001,9.40283203125,-0.6103515625,-1.03759765625,-0.54931640625,0.0,0.0,0.0
10:46:54.844, -0.7991210937500001,-0.7895507812500001,9.675585937500001,2.7179687500000003,-0.6794921875000001,9.40283203125,1.953125,-2.74658203125,-0.79345703125,0.0,0.0,0.0
10:46:54.955, -0.7273437500000001,-0.7704101562500001,9.646875000000001,2.70361328125,-0.66513671875,9.37412109375,0.67138671875,0.244140625,-1.220703125,0.0,0.0,0.0
10:46:55.065, -0.7751953125000001,-0.71298828125,9.73779296875,2.7275390625,-0.669921875,9.39326171875,0.54931640625,0.244140625,-0.54931640625,0.0,0.0,0.0
10:46:55.176, -0.8469726562500001,-0.74169921875,9.704296875,2.6988281250000004,-0.69384765625,9.37890625,-0.48828125,0.8544921875,-0.06103515625,0.0,0.0,0.0
10:46:55.286, -0.82783203125,-0.76083984375,9.627734375000001,2.71318359375,-0.6555664062500001,9.412402343750001,-1.28173828125,0.18310546875,0.0,0.0,0.0,0.0
10:46:55.396, -0.7991210937500001,-0.7704101562500001,9.512890625,2.7083984375,-0.6603515625,9.364550781250001,-0.9765625,-0.1220703125,2.3193359375,0.0,0.0,0.0
10:46:55.506, -0.8421875000000001,-0.7943359375000001,9.914843750000001,2.76103515625,-0.6890625,9.364550781250001,0.9765625,2.3193359375,0.0,0.0,0.0,0.0
10:46:55.617, -0.8708984375000001,-0.7464843750000001,9.60859375,2.6892578125,-0.669921875,9.383691406250001,0.0,0.67138671875,-0.30517578125,0.0,0.0,0.0
10:46:55.726, -0.9139648437500001,-0.8326171875,9.78564453125,2.7418945312500003,-0.6507812500000001,9.42197265625,0.30517578125,0.54931640625,-0.06103515625,0.0,0.0,0.0
10:46:55.836, -0.80869140625,-0.708203125,9.8765625,2.6749023437500004,-0.6603515625,9.40283203125,3.90625,-0.732421875,-1.220703125,0.0,0.0,0.0
10:46:55.947, -0.8134765625000001,-0.63642578125,9.5607421875,2.7275390625,-0.6603515625,9.383691406250001,0.06103515625,-1.64794921875,-1.64794921875,0.0,0.0,0.0
10:46:56.057, -0.87568359375,-0.69384765625,9.527246093750001,2.6749023437500004,-0.6890625,9.398046875,1.220703125,-0.79345703125,-0.79345703125,0.0,0.0,0.0
10:46:56.176, -0.7751953125000001,-0.6125,9.7521484375,2.7275390625,-0.6555664062500001,9.412402343750001,4.2724609375,-2.01416015625,-1.28173828125,0.0,0.0,0.0
10:46:56.286, -0.7704101562500001,-0.6555664062500001,9.70908203125,2.66533203125,-0.6794921875000001,9.39326171875,6.77490234375,-1.953125,-3.11279296875,0.0,0.0,0.0
10:46:56.396, -0.76083984375,-0.153125,9.87177734375,2.7275390625,-0.6890625,9.4650390625,5.0048828125,0.0,-2.8076171875,0.0,0.0,0.0
10:46:56.506, -0.7034179687500001,-0.38759765625000003,9.8478515625,2.68447265625,-0.6555664062500001,9.359765625000001,-5.2490234375,0.0,-1.46484375,0.0,0.0,0.0
10:46:56.616, -0.64599609375,-0.45458984375000006,9.838281250000001,2.6796875,-0.6794921875000001,9.39326171875,-2.25830078125,-3.47900390625,5.7373046875,0.0,0.0,0.0
10:46:56.727, -0.5837890625000001,-0.42587890625,10.04404296875,2.7227539062500004,-0.64599609375,9.340625000000001,-1.0986328125,-14.46533203125,6.77490234375,-0.1220703125,0.18310546875,0.06103515625
10:46:56.837, -0.42109375000000004,-0.45937500000000003,9.589453125,2.6222656250000003,-0.7369140625,9.479394531250001,2.99072265625,-22.5830078125,10.80322265625,-0.48828125,0.1220703125,0.244140625
10:46:56.947, -0.19619140625,-0.42587890625,9.53681640625,2.6892578125,-0.669921875,9.4171875,2.5634765625,-18.37158203125,11.04736328125,0.0,-0.06103515625,-0.06103515625
10:46:57.058, 0.40673828125000006,-0.31103515625,9.627734375000001,2.7083984375,-0.6507812500000001,9.364550781250001,1.28173828125,-12.3291015625,11.474609375,0.244140625,-0.18310546875,0.18310546875
10:46:57.168, 0.708203125,-0.45458984375000006,9.54638671875,2.6031250000000004,-0.68427734375,9.340625000000001,-0.67138671875,-2.5634765625,10.009765625,0.30517578125,0.244140625,0.0
10:46:57.278, 0.7512695312500001,-0.5263671875,9.589453125,2.6988281250000004,-0.6603515625,9.40283203125,-1.46484375,-0.79345703125,8.1787109375,0.0,0.0,-0.06103515625
10:46:57.388, 0.55029296875,-0.5790039062500001,9.814355468750001,2.6940429687500003,-0.64599609375,9.37412109375,-1.89208984375,8.11767578125,1.52587890625,-0.18310546875,0.244140625,-0.06103515625
10:46:57.499, 0.3828125,-0.46894531250000004,9.76171875,2.7083984375,-0.69384765625,9.407617187500001,2.38037109375,2.685546875,-2.5634765625,-0.18310546875,-0.06103515625,0.0
10:46:57.609, 0.31582031250000003,-0.3828125,9.8,2.70361328125,-0.71298828125,9.388476562500001,0.54931640625,2.44140625,-3.60107421875,-0.3662109375,-0.18310546875,-0.18310546875
10:46:57.719, 0.37324218750000004,-0.5455078125,9.94833984375,2.70361328125,-0.708203125,9.44111328125,-3.23486328125,-1.5869140625,-3.72314453125,-0.42724609375,-0.18310546875,-0.30517578125
10:46:57.829, 0.3349609375,-0.4880859375,9.8095703125,2.7466796875000004,-0.6316406250000001,9.412402343750001,-1.03759765625,1.89208984375,-4.2724609375,0.30517578125,0.1220703125,-0.1220703125
10:46:57.940, 0.36367187500000003,-0.50244140625,9.866992187500001,2.3830078125000003,-0.5120117187500001,9.32626953125,0.79345703125,2.25830078125,-4.21142578125,1.89208984375,5.55419921875,-0.1220703125
10:46:58.050, 0.172265625,-0.34453125,9.7330078125,2.7275390625,-0.7943359375000001,9.503320312500001,-0.732421875,5.859375,-3.60107421875,0.18310546875,-0.18310546875,-0.732421875
10:46:58.170, -0.02392578125,-0.7177734375,9.627734375000001,2.6701171875000003,-0.66513671875,9.30712890625,-4.150390625,7.080078125,0.244140625,0.1220703125,-0.244140625,0.0
10:46:58.280, -0.019140625,-0.7273437500000001,9.85263671875,2.45,-1.3972656250000002,9.292773437500001,0.3662109375,2.8076171875,-1.64794921875,-0.30517578125,-0.1220703125,-0.06103515625
10:46:58.390, -0.1244140625,-0.52158203125,9.61337890625,2.7227539062500004,-0.5790039062500001,9.37412109375,2.01416015625,3.5400390625,-2.74658203125,0.0,-0.91552734375,-0.91552734375
10:46:58.501, -0.07177734375,-0.29189453125000003,9.718652343750001,2.68447265625,-0.57421875,9.412402343750001,1.40380859375,3.23486328125,1.220703125,-0.732421875,0.0,0.0
10:46:58.613, -0.21054687500000002,-0.5455078125,9.8765625,2.61748046875,-0.5646484375,9.1587890625,-0.54931640625,4.21142578125,4.57763671875,-2.99072265625,-2.01416015625,2.197265625
10:46:58.723, -0.26796875000000003,-0.765625,10.197167968750001,2.9859375000000004,-0.58857421875,9.508105468750001,-1.3427734375,2.3193359375,-1.220703125,0.67138671875,-1.708984375,-1.77001953125
10:46:58.834, -0.2009765625,-0.42587890625,9.6373046875,2.6988281250000004,-0.6220703125,9.340625000000001,-2.13623046875,-5.31005859375,-3.41796875,-0.244140625,0.0,0.3662109375
10:46:58.945, -0.23447265625000002,-0.43066406250000006,9.46982421875,2.7658203125000003,-0.58857421875,9.484179687500001,-6.4697265625,4.69970703125,-0.1220703125,0.30517578125,-0.244140625,0.0
10:46:59.055, -0.42587890625,-0.7369140625,10.149316406250001,2.737109375,-0.6125,9.335839843750001,-4.0283203125,6.65283203125,2.197265625,-0.48828125,-0.06103515625,0.0
10:46:59.165, -0.45458984375000006,-0.90439453125,9.398046875,2.737109375,-0.6986328125000001,9.364550781250001,0.30517578125,0.48828125,0.244140625,0.54931640625,-0.06103515625,-0.244140625
10:46:59.276, -0.4498046875,-0.708203125,9.96748046875,2.737109375,-0.6316406250000001,9.407617187500001,0.79345703125,1.220703125,-4.2724609375,0.244140625,0.244140625,-0.18310546875
10:46:59.386, -0.42587890625,-0.6555664062500001,9.718652343750001,2.7706054687500004,-0.6412109375,9.32626953125,0.06103515625,-1.46484375,-1.46484375,0.30517578125,0.30517578125,0.06103515625
10:46:59.496, -0.401953125,-0.68427734375,9.651660156250001,2.7227539062500004,-0.669921875,9.4267578125,0.9765625,0.67138671875,-0.18310546875,0.06103515625,0.06103515625,0.0
10:46:59.606, -0.44501953125000004,-0.61728515625,9.78564453125,2.63662109375,-0.6029296875000001,9.283203125,-0.06103515625,1.46484375,0.1220703125,-0.1220703125,0.18310546875,0.244140625
10:46:59.717, -0.50244140625,-0.6986328125000001,9.73779296875,2.7706054687500004,-0.61728515625,9.42197265625,-0.54931640625,-0.18310546875,0.18310546875,0.1220703125,0.06103515625,-0.244140625
10:46:59.827, -0.44501953125000004,-0.69384765625,9.75693359375,2.70361328125,-0.6507812500000001,9.42197265625,1.52587890625,0.91552734375,-0.6103515625,-0.1220703125,0.1220703125,-0.06103515625
10:46:59.938, -0.5455078125,-0.6794921875000001,9.699511718750001,2.75146484375,-0.6029296875000001,9.340625000000001,0.3662109375,1.708984375,-0.18310546875,-0.06103515625,-0.06103515625,-0.06103515625
10:47:00.048, -0.4880859375,-0.6603515625,9.90048828125,3.1055664062500004,-0.6029296875000001,9.484179687500001,-0.06103515625,-1.220703125,-1.220703125,-11.23046875,-1.64794921875,9.09423828125
10:47:00.167, -0.43544921875000003,-0.56943359375,9.61337890625,2.78017578125,-0.59814453125,9.431542968750001,1.52587890625,4.94384765625,-1.28173828125,0.0,0.0,0.0
10:47:00.277, -0.5790039062500001,-0.55029296875,9.58466796875,2.73232421875,-0.669921875,9.37890625,-2.0751953125,10.3759765625,-0.732421875,0.06103515625,-0.06103515625,0.0
10:47:00.387, -0.9091796875000001,-0.7512695312500001,10.154101562500001,2.71318359375,-0.6507812500000001,9.359765625000001,-5.126953125,9.033203125,-1.77001953125,-0.06103515625,-0.1220703125,-0.18310546875
10:47:00.498, -0.8661132812500001,-0.6747070312500001,9.747363281250001,2.7466796875000004,-0.6125,9.398046875,3.72314453125,-4.8828125,-0.8544921875,0.0,-0.06103515625,0.0
10:47:00.609, -0.7369140625,-0.47851562500000006,9.68037109375,2.71318359375,-0.6507812500000001,9.4458984375,3.90625,-3.0517578125,-0.732421875,-0.244140625,-0.1220703125,0.1220703125
10:47:00.719, -0.7512695312500001,-0.46416015625,9.78564453125,2.7227539062500004,-0.6890625,9.340625000000001,-0.18310546875,-2.44140625,1.8310546875,0.0,-0.18310546875,-0.1220703125
10:47:00.831, -0.69384765625,-0.48330078125000003,9.651660156250001,2.6988281250000004,-0.6125,9.42197265625,-1.77001953125,-2.25830078125,4.82177734375,0.0,0.18310546875,0.0
10:47:00.941, -0.708203125,-0.593359375,9.6373046875,2.7227539062500004,-0.6268554687500001,9.37890625,1.5869140625,-1.220703125,5.67626953125,-0.244140625,0.0,0.0
10:47:01.051, -0.61728515625,-0.50244140625,9.9052734375,2.78017578125,-0.66513671875,9.39326171875,2.8076171875,-2.99072265625,3.96728515625,0.1220703125,0.0,0.0
10:47:01.162, -0.5837890625000001,-0.41630859375,9.66123046875,2.7179687500000003,-0.6747070312500001,9.398046875,1.03759765625,-4.21142578125,3.90625,-0.06103515625,0.06103515625,0.06103515625
10:47:01.272, -0.4498046875,-0.5263671875,9.63251953125,2.7418945312500003,-0.61728515625,9.3693359375,-0.67138671875,-4.45556640625,3.11279296875,-0.06103515625,0.0,-0.18310546875
10:47:01.382, -0.36367187500000003,-0.71298828125,9.68994140625,2.73232421875,-0.6412109375,9.4267578125,-1.15966796875,-1.15966796875,-0.244140625,-0.30517578125,-0.18310546875,0.06103515625
10:47:01.492, -0.43066406250000006,-0.6603515625,9.6564453125,2.6892578125,-0.6986328125000001,9.37890625,3.662109375,1.15966796875,-4.7607421875,-0.54931640625,-0.42724609375,0.06103515625
10:47:01.603, -0.47851562500000006,-0.33017578125,9.75693359375,2.7658203125000003,-0.669921875,9.383691406250001,1.03759765625,2.01416015625,-8.60595703125,-0.1220703125,-0.244140625,-0.06103515625
10:47:01.714, -0.3828125,-0.27753906250000004,9.675585937500001,2.7658203125000003,-0.66513671875,9.388476562500001,-2.01416015625,-0.30517578125,-4.8828125,-0.244140625,-0.06103515625,0.0
10:47:01.825, -0.41630859375,-0.36845703125,9.780859375,2.75625,-0.6986328125000001,9.412402343750001,1.40380859375,0.54931640625,-1.40380859375,-0.18310546875,-0.06103515625,0.18310546875
10:47:01.936, -0.36845703125,-0.3541015625,9.843066406250001,2.775390625,-0.68427734375,9.398046875,-1.5869140625,0.3662109375,-0.48828125,0.0,0.0,-0.06103515625
10:47:02.047, -0.42109375000000004,-0.38759765625000003,9.78564453125,2.73232421875,-0.6507812500000001,9.388476562500001,-2.62451171875,0.18310546875,-0.91552734375,0.06103515625,0.0,0.0
10:47:02.167, -0.44501953125000004,-0.69384765625,9.82392578125,2.737109375,-0.6507812500000001,9.37890625,-1.03759765625,0.3662109375,0.3662109375,-0.06103515625,0.0,0.0
10:47:02.277, -0.46894531250000004,-0.5837890625000001,9.80478515625,2.76103515625,-0.69384765625,9.388476562500001,1.0986328125,1.03759765625,-1.5869140625,-0.30517578125,0.0,0.06103515625
10:47:02.387, -0.45458984375000006,-0.41630859375,9.66123046875,2.737109375,-0.7034179687500001,9.364550781250001,-1.52587890625,-0.91552734375,-1.52587890625,0.06103515625,-0.06103515625,0.1220703125
10:47:02.498, -0.49287109375000004,-0.49765625,9.723437500000001,2.75625,-0.6603515625,9.3693359375,-2.685546875,1.953125,0.9765625,0.06103515625,-0.06103515625,-0.1220703125
10:47:02.609, -0.4880859375,-0.68427734375,9.7521484375,2.6892578125,-0.7034179687500001,9.321484375,-0.18310546875,-1.40380859375,1.77001953125,-0.06103515625,0.06103515625,-0.06103515625
10:47:02.719, -0.49287109375000004,-0.593359375,9.704296875,2.75146484375,-0.7177734375,9.4458984375,0.0,0.3662109375,1.3427734375,-0.1220703125,-0.1220703125,-0.244140625
10:47:02.830, -0.49765625,-0.69384765625,10.0392578125,2.78017578125,-0.6412109375,9.335839843750001,-0.3662109375,-5.92041015625,1.46484375,0.06103515625,0.0,-0.1220703125
10:47:02.942, -0.37802734375,-0.76083984375,10.2306640625,2.7083984375,-0.6603515625,9.388476562500001,3.23486328125,-18.61572265625,1.708984375,-0.06103515625,0.06103515625,0.06103515625
10:47:03.052, 0.0861328125,-0.6890625,9.8478515625,2.7466796875000004,-0.6986328125000001,9.388476562500001,8.60595703125,-25.7568359375,-0.1220703125,-0.1220703125,-0.30517578125,-0.06103515625
10:47:03.162, 0.5120117187500001,-0.42109375000000004,9.54638671875,2.75146484375,-0.9570312500000001,8.2783203125,5.2490234375,-23.3154296875,-3.90625,-1.89208984375,-2.44140625,2.5634765625
10:47:03.273, 1.1580078125000002,-0.37802734375,9.4267578125,2.99072265625,-0.765625,9.407617187500001,-1.46484375,-8.85009765625,-3.90625,2.685546875,2.197265625,0.54931640625
10:47:03.383, 1.282421875,-0.39716796875000004,9.622949218750001,2.7658203125000003,-0.58857421875,9.398046875,1.52587890625,-4.69970703125,-3.23486328125,3.2958984375,1.3427734375,0.0
10:47:03.494, 1.1101562500000002,0.0478515625,9.866992187500001,2.7083984375,-0.6794921875000001,9.3310546875,3.84521484375,0.732421875,-4.39453125,-0.3662109375,0.1220703125,0.0
10:47:03.604, 1.17236328125,-0.172265625,9.66123046875,2.7418945312500003,-0.59814453125,9.44111328125,-8.7890625,-1.64794921875,0.6103515625,-0.48828125,-0.06103515625,0.0
10:47:03.715, 1.2393554687500001,-0.48330078125000003,9.87177734375,2.75146484375,-0.7034179687500001,9.34541015625,-0.244140625,-3.60107421875,2.62451171875,-0.54931640625,0.06103515625,0.0
10:47:03.826, 1.2632812500000001,-0.38759765625000003,9.4650390625,2.73232421875,-0.6794921875000001,9.3310546875,0.732421875,-1.15966796875,-1.46484375,-0.06103515625,-0.18310546875,0.0
10:47:03.936, 1.15322265625,-0.26318359375,9.72822265625,2.7418945312500003,-0.6603515625,9.412402343750001,-3.84521484375,5.18798828125,0.0,0.3662109375,-0.06103515625,-0.1220703125
10:47:04.046, 1.2297851562500002,-0.4880859375,9.6564453125,2.7227539062500004,-0.64599609375,9.3310546875,-1.8310546875,0.244140625,2.86865234375,0.0,0.0,0.0
10:47:04.165, 1.17236328125,-0.43066406250000006,9.88134765625,2.7658203125000003,-0.71298828125,9.39326171875,0.79345703125,-0.1220703125,-1.28173828125,0.0,0.0,0.0
10:47:04.275, 1.18671875,-0.36367187500000003,9.5416015625,2.7418945312500003,-0.66513671875,9.3501953125,0.732421875,0.48828125,0.42724609375,-0.1220703125,0.0,0.0
10:47:04.386, 1.0958007812500001,-0.45458984375000006,9.7330078125,2.78017578125,-0.64599609375,9.42197265625,-2.8076171875,2.38037109375,2.5634765625,0.0,-0.06103515625,0.0
10:47:04.497, 1.0383789062500002,-0.55029296875,9.699511718750001,2.7706054687500004,-0.708203125,9.4171875,-0.18310546875,2.74658203125,1.5869140625,0.0,0.0,0.0
10:47:04.607, 0.9378906250000001,-0.4880859375,9.862207031250001,2.75625,-0.6603515625,9.35498046875,-0.54931640625,0.54931640625,-0.18310546875,0.0,0.1220703125,-0.06103515625
10:47:04.717, 0.9666015625000001,-0.5120117187500001,9.64208984375,2.7418945312500003,-0.6555664062500001,9.39326171875,-1.28173828125,-0.79345703125,0.06103515625,-0.1220703125,0.0,-0.06103515625
10:47:04.827, 1.0814453125,-0.49287109375000004,9.704296875,2.7466796875000004,-0.6603515625,9.364550781250001,-0.732421875,-0.42724609375,-0.6103515625,-0.06103515625,0.06103515625,-0.06103515625
10:47:04.937, 1.01923828125,-0.516796875,9.575097656250001,2.7418945312500003,-0.6747070312500001,9.42197265625,-1.8310546875,1.8310546875,-0.30517578125,0.0,-0.1220703125,0.0
10:47:05.048, 0.85654296875,-0.6316406250000001,9.771289062500001,2.75625,-0.7034179687500001,9.4171875,-4.69970703125,2.9296875,-3.41796875,0.06103515625,-0.1220703125,0.0
10:47:05.158, 0.784765625,-0.7464843750000001,9.795214843750001,2.7275390625,-0.69384765625,9.37412109375,-2.0751953125,2.25830078125,-2.5634765625,-0.1220703125,-0.18310546875,-0.1220703125
10:47:05.270, 0.8230468750000001,-0.6555664062500001,9.747363281250001,2.7897460937500003,-0.593359375,9.436328125000001,0.732421875,0.732421875,-3.0517578125,-0.06103515625,-0.06103515625,0.06103515625
10:47:05.380, 0.8421875000000001,-0.6412109375,9.723437500000001,2.76103515625,-0.7464843750000001,9.5416015625,0.42724609375,1.5869140625,-2.50244140625,-0.18310546875,0.1220703125,0.06103515625
10:47:05.491, 0.74169921875,-0.73212890625,9.68994140625,2.7179687500000003,-0.6794921875000001,9.364550781250001,0.0,2.44140625,-4.21142578125,0.0,0.0,0.1220703125
10:47:05.600, 0.7273437500000001,-0.7369140625,9.8765625,2.7227539062500004,-0.6555664062500001,9.388476562500001,0.3662109375,0.1220703125,-6.7138671875,0.0,-0.18310546875,0.06103515625
10:47:05.712, 0.7464843750000001,-0.6603515625,9.790429687500001,2.4547851562500003,-0.7751953125000001,9.6564453125,1.0986328125,-0.54931640625,-7.080078125,0.0,-0.06103515625,-0.06103515625
10:47:05.823, 0.784765625,-0.6029296875000001,9.790429687500001,2.8902343750000004,-0.56943359375,9.407617187500001,1.40380859375,1.64794921875,-7.32421875,0.0,-0.18310546875,0.06103515625
10:47:05.933, 0.71298828125,-0.4880859375,9.694726562500001,2.660546875,-0.6747070312500001,9.474609375,0.79345703125,1.77001953125,-3.2958984375,-1.0986328125,-0.67138671875,2.01416015625
10:47:06.044, 0.6890625,-0.46894531250000004,9.6564453125,2.6270507812500004,-0.6986328125000001,9.412402343750001,-1.03759765625,5.9814453125,-1.0986328125,-0.244140625,-0.06103515625,0.1220703125
10:47:06.154, 0.5120117187500001,-0.6077148437500001,9.9052734375,2.7658203125000003,-0.7273437500000001,9.37890625,-2.38037109375,8.48388671875,-2.74658203125,-0.54931640625,-0.06103515625,0.0
10:47:06.257, 0.27275390625,-0.61728515625,9.718652343750001,2.75146484375,-0.66513671875,9.398046875,0.91552734375,6.591796875,-4.82177734375,-0.18310546875,0.0,-0.18310546875
10:47:06.367, 0.2583984375,-0.6029296875000001,9.895703125,2.7466796875000004,-0.6890625,9.383691406250001,0.79345703125,2.01416015625,-5.615234375,0.0,0.0,0.0
10:47:06.477, 0.23925781250000003,-0.77998046875,9.795214843750001,2.75146484375,-0.669921875,9.398046875,1.52587890625,-1.8310546875,-10.80322265625,-0.06103515625,0.06103515625,-0.06103515625
10:47:06.586, 0.37324218750000004,-0.6555664062500001,9.838281250000001,2.7418945312500003,-0.6986328125000001,9.37890625,3.72314453125,-5.18798828125,-15.0146484375,-0.18310546875,0.0,0.0
10:47:06.696, 0.43544921875000003,-0.57421875,9.6373046875,2.7945312500000004,-0.6986328125000001,9.44111328125,3.90625,-5.67626953125,-19.34814453125,0.06103515625,0.0,-0.1220703125
10:47:06.806, 0.6029296875000001,-0.34931640625000004,9.694726562500001,2.73232421875,-0.6986328125000001,9.37890625,0.54931640625,-3.173828125,-22.4609375,-0.1220703125,-0.06103515625,0.0
10:47:06.917, 0.64599609375,-0.16748046875,9.670800781250001,2.75625,-0.6603515625,9.359765625000001,-1.03759765625,-1.03759765625,-15.93017578125,-0.1220703125,-0.06103515625,0.06103515625
10:47:07.026, 0.669921875,-0.18183593750000002,9.8,2.75146484375,-0.68427734375,9.398046875,2.0751953125,-0.9765625,-9.33837890625,0.0,0.1220703125,-0.244140625
10:47:07.137, 0.669921875,-0.1435546875,9.56552734375,2.6270507812500004,-0.6507812500000001,9.512890625,1.8310546875,-2.99072265625,-2.0751953125,0.18310546875,0.244140625,-0.244140625
10:47:07.247, 0.7704101562500001,-0.13876953125000002,9.819140625000001,2.775390625,-0.63642578125,9.37890625,-0.244140625,-0.48828125,1.0986328125,-0.30517578125,-0.30517578125,0.0
10:47:07.356, 0.8182617187500001,-0.25361328125000004,9.6181640625,2.75146484375,-0.6507812500000001,9.3693359375,-0.79345703125,-1.5869140625,3.7841796875,0.1220703125,-0.06103515625,0.0
10:47:07.466, 0.76083984375,-0.33974609375000003,9.7330078125,2.7179687500000003,-0.6603515625,9.37890625,1.8310546875,2.3193359375,3.96728515625,-0.18310546875,-0.1220703125,-0.18310546875
10:47:07.576, 0.71298828125,-0.14833984375,9.91962890625,2.7849609375,-0.6747070312500001,9.412402343750001,0.42724609375,3.5400390625,3.662109375,0.06103515625,-0.06103515625,0.06103515625
10:47:07.687, 0.63642578125,-0.22490234375,9.651660156250001,2.71318359375,-0.6603515625,9.3501953125,-1.8310546875,1.3427734375,9.033203125,0.06103515625,0.0,0.0
10:47:07.796, 0.63642578125,-0.31103515625,9.82392578125,2.737109375,-0.64599609375,9.340625000000001,-0.91552734375,2.9296875,11.04736328125,0.06103515625,0.1220703125,0.0
10:47:07.906, 0.5120117187500001,-0.43544921875000003,9.88134765625,2.737109375,-0.669921875,9.3501953125,2.01416015625,-0.244140625,9.765625,-0.06103515625,-0.18310546875,0.06103515625
10:47:08.017, 0.56943359375,-0.16748046875,9.60859375,2.775390625,-0.7177734375,9.40283203125,3.90625,-1.8310546875,10.07080078125,0.0,0.0,-0.1220703125
10:47:08.127, 0.61728515625,-0.1244140625,9.704296875,2.7418945312500003,-0.6794921875000001,9.4458984375,0.18310546875,-1.220703125,14.16015625,0.0,-0.18310546875,-0.06103515625
10:47:08.230, 0.6220703125,-0.248828125,9.68994140625,2.75625,-0.64599609375,9.3501953125,-0.79345703125,0.1220703125,20.08056640625,0.0,0.0,0.0
10:47:08.340, 0.6077148437500001,-0.22968750000000002,9.795214843750001,2.7658203125000003,-0.669921875,9.45068359375,2.74658203125,-0.42724609375,22.39990234375,0.0,0.0,0.0
10:47:08.451, 0.6412109375,-0.26318359375,9.589453125,2.7706054687500004,-0.69384765625,9.383691406250001,0.8544921875,0.732421875,20.8740234375,0.0,0.0,0.0
10:47:08.560, 0.5837890625000001,-0.41630859375,9.91962890625,2.8136718750000003,-0.64599609375,9.39326171875,-0.48828125,0.6103515625,16.6015625,0.0,0.0,0.0
10:47:08.670, 0.6077148437500001,-0.47373046875,9.838281250000001,2.7179687500000003,-0.66513671875,9.383691406250001,0.06103515625,-1.708984375,11.71875,0.0,0.0,0.0
10:47:08.781, 0.6794921875000001,-0.32060546875,9.5607421875,2.737109375,-0.708203125,9.287988281250001,-0.67138671875,-0.42724609375,-3.72314453125,-0.1220703125,-0.1220703125,-0.06103515625
10:47:08.891, 0.6986328125000001,-0.33017578125,9.843066406250001,2.75625,-0.6890625,9.3501953125,0.0,-0.244140625,-3.72314453125,0.0,0.06103515625,0.06103515625
10:47:09.001, 0.66513671875,-0.19619140625,9.670800781250001,2.75625,-0.669921875,9.40283203125,2.13623046875,-0.79345703125,-1.708984375,0.1220703125,0.06103515625,0.0
10:47:09.111, 0.6316406250000001,-0.2201171875,9.68994140625,2.7658203125000003,-0.6555664062500001,9.4171875,2.197265625,0.18310546875,-1.220703125,0.0,-0.1220703125,-0.18310546875
10:47:09.222, 0.708203125,-0.09091796875000001,9.85263671875,2.7418945312500003,-0.6890625,9.3501953125,-1.03759765625,-1.0986328125,-1.3427734375,0.0,-0.06103515625,0.0
10:47:09.332, 0.708203125,-0.14833984375,9.675585937500001,2.75625,-0.6316406250000001,9.30234375,-0.79345703125,-1.03759765625,1.0986328125,0.0,0.1220703125,0.0
10:47:09.442, 0.74169921875,-0.37324218750000004,9.723437500000001,2.7466796875000004,-0.6603515625,9.4267578125,-0.1220703125,0.48828125,-0.244140625,0.18310546875,-0.06103515625,-0.06103515625
10:47:09.552, 0.7273437500000001,-0.30625,9.819140625000001,2.737109375,-0.708203125,9.37890625,-2.13623046875,-0.8544921875,-3.11279296875,-0.1220703125,0.0,0.06103515625
10:47:09.662, 0.708203125,-0.248828125,9.718652343750001,2.7227539062500004,-0.66513671875,9.335839843750001,1.52587890625,-0.18310546875,-3.7841796875,-0.18310546875,-0.48828125,0.42724609375
10:47:09.772, 0.708203125,-0.18183593750000002,9.77607421875,2.7706054687500004,-0.669921875,9.35498046875,1.0986328125,-0.30517578125,-1.52587890625,-0.1220703125,-0.1220703125,0.0
10:47:09.882, 0.74169921875,-0.14833984375,9.704296875,2.7897460937500003,-0.64599609375,9.3693359375,0.0,0.30517578125,0.30517578125,0.06103515625,0.0,-0.06103515625
10:47:09.992, 0.7034179687500001,-0.21533203125000003,9.7138671875,2.75625,-0.7273437500000001,9.27841796875,0.0,0.9765625,0.1220703125,-0.244140625,0.18310546875,-0.18310546875
10:47:10.102, 0.7273437500000001,-0.31103515625,9.723437500000001,2.75625,-0.6747070312500001,9.37412109375,-0.54931640625,1.220703125,1.28173828125,0.1220703125,-0.1220703125,-0.06103515625
10:47:10.205, 0.61728515625,-0.21054687500000002,9.77607421875,2.75625,-0.6794921875000001,9.292773437500001,0.1220703125,1.40380859375,0.06103515625,-0.1220703125,0.0,0.1220703125
10:47:10.316, 0.6794921875000001,-0.18662109375000002,9.814355468750001,2.737109375,-0.7034179687500001,9.37412109375,0.1220703125,-0.8544921875,0.3662109375,0.0,0.06103515625,0.0
10:47:10.426, 0.6077148437500001,-0.2583984375,9.8287109375,2.75146484375,-0.69384765625,9.407617187500001,-1.0986328125,1.3427734375,1.708984375,0.06103515625,-0.06103515625,-0.06103515625
10:47:10.536, 0.6125,-0.30625,9.8,2.7658203125000003,-0.66513671875,9.35498046875,-1.03759765625,0.0,1.03759765625,-0.06103515625,0.0,0.0
10:47:10.647, 0.708203125,-0.248828125,9.666015625,2.6940429687500003,-0.63642578125,9.37412109375,2.3193359375,-1.40380859375,0.0,0.0,0.0,0.0
10:47:10.757, 0.66513671875,-0.21054687500000002,9.78564453125,2.775390625,-0.68427734375,9.3501953125,0.48828125,1.89208984375,-1.77001953125,-0.1220703125,-0.244140625,0.06103515625
10:47:10.867, 0.669921875,-0.15791015625000002,9.843066406250001,2.76103515625,-0.6555664062500001,9.32626953125,-1.28173828125,-0.1220703125,0.244140625,0.1220703125,-0.244140625,0.0
10:47:10.977, 0.669921875,-0.33017578125,9.63251953125,2.6892578125,-0.63642578125,9.4458984375,-2.197265625,-0.30517578125,2.99072265625,0.0,0.06103515625,0.0
10:47:11.086, 0.6316406250000001,-0.32539062500000004,9.953125,2.73232421875,-0.7177734375,9.32626953125,0.6103515625,2.685546875,-2.99072265625,-0.06103515625,0.0,0.06103515625
10:47:11.213, 0.5359375000000001,-0.12919921875,9.63251953125,2.78017578125,-0.6986328125000001,9.44111328125,0.30517578125,1.708984375,-0.732421875,0.244140625,-0.1220703125,0.06103515625
10:47:11.323, 0.49287109375000004,-0.28232421875,9.91962890625,2.7466796875000004,-0.6603515625,9.407617187500001,-3.96728515625,1.52587890625,2.5634765625,0.0,0.06103515625,0.0
10:47:11.432, 0.49765625,-0.35888671875,9.704296875,2.75146484375,-0.7177734375,9.335839843750001,0.79345703125,1.52587890625,-0.30517578125,0.0,0.0,0.0
10:47:11.543, 0.5072265625000001,-0.23447265625000002,9.83349609375,2.7466796875000004,-0.69384765625,9.407617187500001,1.3427734375,0.91552734375,-1.3427734375,0.06103515625,0.0,0.0
10:47:11.652, 0.440234375,-0.172265625,9.6564453125,2.71318359375,-0.6794921875000001,9.34541015625,-3.173828125,1.15966796875,0.42724609375,0.06103515625,0.0,-0.06103515625
10:47:11.763, 0.41152343750000003,-0.43544921875000003,9.814355468750001,2.7418945312500003,-0.6220703125,9.42197265625,-1.52587890625,1.28173828125,2.50244140625,0.06103515625,-0.18310546875,-0.06103515625
10:47:11.873, 0.3923828125,-0.41152343750000003,9.73779296875,2.73232421875,-0.7034179687500001,9.37890625,1.0986328125,0.6103515625,0.0,-0.06103515625,0.0,0.0
10:47:11.984, 0.34453125,-0.33017578125,9.91962890625,2.737109375,-0.6747070312500001,9.32626953125,-0.79345703125,-0.54931640625,-0.91552734375,-0.18310546875,-0.244140625,0.06103515625
10:47:12.094, 0.3923828125,-0.37802734375,9.7521484375,2.7945312500000004,-0.6555664062500001,9.436328125000001,-0.6103515625,-3.23486328125,1.708984375,0.18310546875,0.0,-0.1220703125
10:47:12.198, 0.43066406250000006,-0.38759765625000003,9.704296875,2.7083984375,-0.6507812500000001,9.35498046875,1.52587890625,-1.40380859375,1.40380859375,0.0,0.0,0.0
10:47:12.308, 0.5072265625000001,-0.32539062500000004,9.704296875,2.7658203125000003,-0.6890625,9.4171875,1.28173828125,-0.9765625,-2.50244140625,0.0,0.0,0.0
10:47:12.417, 0.5598632812500001,-0.14833984375,9.790429687500001,2.70361328125,-0.6747070312500001,9.359765625000001,0.42724609375,-1.46484375,-0.6103515625,0.0,0.0,0.0
10:47:12.528, 0.47851562500000006,-0.40673828125000006,9.814355468750001,2.7897460937500003,-0.6412109375,9.412402343750001,-0.67138671875,1.15966796875,2.38037109375,0.0,0.0,0.0
10:47:12.638, 0.50244140625,-0.39716796875000004,9.8765625,2.8041015625,-0.6555664062500001,9.40283203125,0.3662109375,-0.6103515625,-1.0986328125,0.0,0.0,0.0
10:47:12.750, 0.45937500000000003,-0.18183593750000002,9.718652343750001,2.71318359375,-0.7273437500000001,9.3501953125,0.91552734375,0.1220703125,-2.0751953125,0.0,0.0,0.0
10:47:12.861, 0.46894531250000004,-0.248828125,9.766503906250001,2.7658203125000003,-0.708203125,9.359765625000001,-1.8310546875,1.15966796875,2.13623046875,0.0,0.0,0.0
10:47:12.971, 0.4880859375,-0.49287109375000004,9.77607421875,2.76103515625,-0.6220703125,9.3693359375,-2.3193359375,0.18310546875,2.50244140625,-0.244140625,0.1220703125,0.0
10:47:13.082, 0.440234375,-0.43544921875000003,9.675585937500001,2.73232421875,-0.6890625,9.364550781250001,1.708984375,1.52587890625,-0.732421875,0.0,-0.06103515625,0.0
10:47:13.193, 0.36845703125,-0.37324218750000004,9.780859375,2.75146484375,-0.7273437500000001,9.39326171875,-0.8544921875,1.46484375,0.30517578125,0.1220703125,0.0,-0.06103515625
10:47:13.304, 0.37324218750000004,-0.37324218750000004,9.72822265625,2.737109375,-0.6794921875000001,9.37890625,-0.67138671875,-0.06103515625,1.03759765625,0.1220703125,0.0,0.0
10:47:13.414, 0.36367187500000003,-0.38759765625000003,9.843066406250001,2.7466796875000004,-0.66513671875,9.383691406250001,0.1220703125,0.42724609375,-0.6103515625,-0.06103515625,0.0,0.0
10:47:13.525, 0.35888671875,-0.29189453125000003,9.72822265625,2.7275390625,-0.6986328125000001,9.37412109375,0.54931640625,-0.67138671875,-0.54931640625,0.0,0.06103515625,0.0
10:47:13.636, 0.4498046875,-0.43066406250000006,9.723437500000001,2.7227539062500004,-0.66513671875,9.39326171875,-0.9765625,-0.6103515625,2.197265625,0.06103515625,0.0,0.0
10:47:13.747, 0.35888671875,-0.47851562500000006,9.80478515625,2.7466796875000004,-0.6555664062500001,9.40283203125,0.42724609375,0.244140625,0.1220703125,-0.1220703125,0.06103515625,-0.06103515625
10:47:13.857, 0.42109375000000004,-0.287109375,9.73779296875,2.737109375,-0.6890625,9.383691406250001,1.03759765625,-0.67138671875,-1.953125,0.0,0.0,0.0
10:47:13.967, 0.3923828125,-0.2583984375,9.76171875,2.7466796875000004,-0.6747070312500001,9.37890625,-1.40380859375,0.42724609375,0.42724609375,0.0,0.0,0.0
10:47:14.078, 0.38759765625000003,-0.46894531250000004,9.742578125000001,2.775390625,-0.64599609375,9.412402343750001,-0.06103515625,-0.3662109375,0.0,0.0,0.0,0.0
10:47:14.182, 0.38759765625000003,-0.27275390625,9.742578125000001,2.7179687500000003,-0.6890625,9.383691406250001,1.52587890625,-0.1220703125,-0.54931640625,0.0,0.0,0.0
10:47:14.292, 0.37802734375,-0.30146484375000004,9.723437500000001,2.75146484375,-0.6747070312500001,9.39326171875,-0.42724609375,0.732421875,-0.3662109375,0.0,0.0,0.0
10:47:14.403, 0.37324218750000004,-0.40673828125000006,9.87177734375,2.7418945312500003,-0.6555664062500001,9.383691406250001,-0.79345703125,-0.42724609375,0.732421875,0.0,0.0,0.0
10:47:14.513, 0.37802734375,-0.38759765625000003,9.68994140625,2.73232421875,-0.6890625,9.39326171875,0.42724609375,0.0,0.0,0.0,0.0,0.0
10:47:14.624, 0.37324218750000004,-0.34931640625000004,9.838281250000001,2.75625,-0.6890625,9.37890625,-0.06103515625,1.3427734375,-0.18310546875,0.0,0.0,0.0
10:47:14.734, 0.34931640625000004,-0.45458984375000006,9.766503906250001,2.737109375,-0.6794921875000001,9.398046875,1.0986328125,-0.244140625,0.54931640625,0.0,0.0,0.0
10:47:14.845, 0.34453125,-0.3349609375,9.76171875,2.7275390625,-0.66513671875,9.3501953125,0.30517578125,1.220703125,-0.48828125,0.0,0.0,0.0
10:47:14.956, 0.2966796875,-0.31582031250000003,9.73779296875,2.7466796875000004,-0.6507812500000001,9.3693359375,-1.0986328125,1.64794921875,0.0,0.0,0.0,0.0
10:47:15.065, 0.26796875000000003,-0.43066406250000006,9.723437500000001,2.75625,-0.6555664062500001,9.398046875,0.1220703125,0.54931640625,1.03759765625,0.0,0.0,0.0
10:47:15.176, 0.25361328125000004,-0.39716796875000004,9.771289062500001,2.75146484375,-0.6890625,9.407617187500001,-1.03759765625,1.64794921875,-0.9765625,0.0,0.0,-0.244140625
10:47:15.302, 0.172265625,-0.37802734375,9.80478515625,2.6461914062500003,-0.68427734375,9.412402343750001,-0.1220703125,0.42724609375,0.3662109375,-0.06103515625,0.0,-0.30517578125
10:47:15.412, 0.22490234375,-0.43066406250000006,9.76171875,2.7418945312500003,-0.7177734375,9.4171875,-0.18310546875,-0.3662109375,0.3662109375,0.1220703125,-0.244140625,0.0
10:47:15.522, 0.26318359375,-0.33974609375000003,9.77607421875,2.7466796875000004,-0.66513671875,9.359765625000001,-0.8544921875,0.30517578125,0.244140625,0.0,0.0,0.0
10:47:15.632, 0.22968750000000002,-0.40673828125000006,9.78564453125,2.73232421875,-0.6603515625,9.40283203125,-0.1220703125,-0.06103515625,0.732421875,-0.1220703125,0.0,0.06103515625
10:47:15.743, 0.21054687500000002,-0.3828125,9.75693359375,2.7275390625,-0.68427734375,9.383691406250001,0.3662109375,0.3662109375,-0.244140625,0.0,0.1220703125,-0.1220703125
10:47:15.853, 0.21054687500000002,-0.3828125,9.704296875,2.75625,-0.6555664062500001,9.3310546875,-0.30517578125,0.8544921875,-0.3662109375,-0.06103515625,0.0,0.1220703125
10:47:15.964, 0.20576171875000002,-0.401953125,9.699511718750001,2.9141601562500004,-0.7560546875,9.455468750000001,0.244140625,1.03759765625,0.91552734375,0.30517578125,-0.6103515625,-0.67138671875
10:47:16.074, 0.172265625,-0.42587890625,9.747363281250001,2.7275390625,-0.6603515625,9.398046875,-0.67138671875,2.25830078125,-2.0751953125,-0.1220703125,0.0,0.0
10:47:16.178, 0.13398437500000002,-0.41630859375,9.819140625000001,2.73232421875,-0.669921875,9.398046875,2.3193359375,2.13623046875,-2.25830078125,-0.06103515625,0.06103515625,0.0
10:47:16.288, 0.09091796875000001,-0.37802734375,9.75693359375,2.7227539062500004,-0.669921875,9.34541015625,0.732421875,1.40380859375,-2.685546875,0.0,0.0,0.06103515625
10:47:16.397, 0.03828125,-0.36367187500000003,9.6373046875,2.7275390625,-0.6986328125000001,9.383691406250001,1.52587890625,3.72314453125,-4.638671875,0.0,-0.06103515625,0.0
10:47:16.507, 0.014355468750000001,-0.287109375,10.02490234375,2.6318359375,-0.6603515625,9.431542968750001,0.0,0.42724609375,-2.74658203125,-0.42724609375,-0.1220703125,0.3662109375
10:47:16.617, -0.07177734375,-0.20576171875000002,9.68037109375,2.7945312500000004,-0.68427734375,9.3310546875,2.13623046875,-0.48828125,-0.6103515625,-0.06103515625,0.0,0.06103515625
10:47:16.727, 0.02392578125,-0.18662109375000002,9.843066406250001,2.6988281250000004,-0.68427734375,9.383691406250001,-0.42724609375,-1.52587890625,1.40380859375,-0.06103515625,0.0,0.18310546875
10:47:16.838, 0.03828125,-0.29189453125000003,9.76171875,2.75625,-0.6555664062500001,9.3693359375,-1.708984375,-1.3427734375,1.52587890625,0.06103515625,0.244140625,0.0
10:47:16.948, 0.052636718750000006,-0.3349609375,9.718652343750001,2.7658203125000003,-0.669921875,9.407617187500001,-0.244140625,-0.732421875,0.79345703125,0.1220703125,0.0,-0.06103515625
10:47:17.059, 0.12919921875,-0.31103515625,9.862207031250001,2.73232421875,-0.69384765625,9.412402343750001,0.6103515625,-1.953125,1.0986328125,0.1220703125,0.1220703125,0.0
10:47:17.170, 0.03828125,-0.33974609375000003,9.646875000000001,2.737109375,-0.6890625,9.30712890625,-0.6103515625,1.03759765625,2.0751953125,0.0,0.0,0.0
10:47:17.280, -0.06220703125,-0.35888671875,9.579882812500001,2.76103515625,-0.66513671875,9.412402343750001,0.54931640625,-1.28173828125,-2.5634765625,0.0,-0.1220703125,-0.06103515625
10:47:17.391, 0.0478515625,-0.153125,9.704296875,2.7275390625,-0.7034179687500001,9.340625000000001,2.9296875,-0.42724609375,-2.685546875,-0.1220703125,-0.06103515625,0.1220703125
10:47:17.501, 0.033496093750000004,-0.09091796875000001,9.675585937500001,2.75625,-0.6555664062500001,9.37412109375,2.99072265625,-3.60107421875,-0.6103515625,0.1220703125,0.1220703125,0.0
10:47:17.611, 0.153125,-0.16269531250000002,9.890917968750001,2.7275390625,-0.6747070312500001,9.383691406250001,1.708984375,-5.18798828125,1.220703125,0.1220703125,0.1220703125,-0.18310546875
10:47:17.722, 0.24404296875,-0.03828125,9.51767578125,2.7227539062500004,-0.6794921875000001,9.3693359375,1.52587890625,-7.14111328125,1.3427734375,0.0,0.18310546875,-0.244140625
10:47:17.833, 0.45937500000000003,-0.1244140625,9.91962890625,3.03857421875,-0.7034179687500001,9.508105468750001,0.18310546875,-4.69970703125,-0.06103515625,0.42724609375,-0.48828125,-0.79345703125
10:47:17.944, 0.6029296875000001,-0.19619140625,9.5416015625,2.7227539062500004,-0.6747070312500001,9.39326171875,-1.0986328125,-6.53076171875,-0.3662109375,0.0,0.06103515625,-0.06103515625
10:47:18.056, 0.69384765625,-0.1435546875,9.88134765625,2.78017578125,-0.64599609375,9.412402343750001,0.67138671875,-4.69970703125,-2.50244140625,0.42724609375,0.0,-0.06103515625
10:47:18.175, 0.69384765625,-0.172265625,9.78564453125,2.68447265625,-0.5646484375,9.287988281250001,0.732421875,-9.6435546875,-6.7138671875,0.30517578125,0.18310546875,0.1220703125
10:47:18.286, 0.9331054687500001,-0.095703125,9.5607421875,2.7466796875000004,-0.6794921875000001,9.398046875,-0.91552734375,-10.43701171875,-9.46044921875,0.0,0.06103515625,-0.06103515625
10:47:18.396, 1.12451171875,0.1435546875,9.56552734375,2.71318359375,-0.6747070312500001,9.455468750000001,0.9765625,-5.18798828125,-2.86865234375,0.244140625,0.0,-0.244140625
10:47:18.509, 1.1484375,-0.033496093750000004,9.5224609375,2.7275390625,-0.6603515625,9.388476562500001,0.48828125,-3.662109375,4.82177734375,0.1220703125,0.18310546875,-0.54931640625
10:47:18.621, 1.2632812500000001,-0.033496093750000004,9.599023437500001,2.78017578125,-0.6507812500000001,9.383691406250001,2.13623046875,-10.7421875,3.72314453125,-0.6103515625,0.30517578125,0.1220703125
10:47:18.732, 1.44033203125,-0.014355468750000001,9.4171875,2.7227539062500004,-0.6555664062500001,9.311914062500001,-1.3427734375,-7.8125,3.23486328125,-0.6103515625,0.06103515625,0.42724609375
10:47:18.844, 1.6843750000000002,-0.20576171875000002,9.431542968750001,2.8136718750000003,-0.6890625,9.622949218750001,-0.18310546875,-5.615234375,1.89208984375,0.0,-0.1220703125,-0.06103515625
10:47:18.956, 1.91884765625,-0.028710937500000002,9.70908203125,2.85673828125,-0.56943359375,9.460253906250001,2.25830078125,-6.9580078125,1.220703125,-0.06103515625,0.54931640625,-0.1220703125
10:47:19.060, 1.8470703125,0.0,9.240136718750001,2.75146484375,-0.6890625,9.2544921875,2.5634765625,6.34765625,-1.40380859375,-0.244140625,-0.18310546875,0.30517578125
10:47:19.171, 1.7896484375000001,0.11484375000000001,9.957910156250001,2.7706054687500004,-0.7704101562500001,9.45068359375,0.54931640625,4.45556640625,-1.953125,0.0,0.0,0.0
10:47:19.284, 1.6173828125,0.0095703125,9.551171875000001,2.6940429687500003,-0.6507812500000001,9.359765625000001,-3.90625,4.7607421875,1.0986328125,-0.06103515625,0.3662109375,0.06103515625
10:47:19.396, 1.435546875,-0.18183593750000002,9.7521484375,2.8041015625,-0.669921875,9.407617187500001,0.244140625,6.103515625,3.2958984375,0.0,0.0,0.1220703125
10:47:19.508, 1.40205078125,0.1244140625,9.7138671875,2.5169921875,-0.5550781250000001,9.311914062500001,1.89208984375,0.54931640625,-3.72314453125,0.48828125,-1.46484375,0.91552734375
10:47:19.618, 1.3589843750000001,0.19140625,9.718652343750001,2.737109375,-0.6316406250000001,9.3501953125,-5.18798828125,-0.54931640625,0.0,0.18310546875,0.0,-0.54931640625
10:47:19.730, 1.4690429687500002,-0.13876953125000002,9.819140625000001,2.8184570312500004,-0.6316406250000001,9.460253906250001,0.3662109375,-4.08935546875,4.5166015625,0.18310546875,-0.30517578125,0.732421875
10:47:19.841, 1.5743164062500001,-0.057421875000000004,9.54638671875,2.7466796875000004,-0.6555664062500001,9.3693359375,2.197265625,-3.5400390625,-0.732421875,0.0,0.0,0.0
10:47:19.953, 1.6365234375000002,0.08134765625000001,9.718652343750001,2.7849609375,-0.6986328125000001,9.4171875,-0.30517578125,-0.8544921875,-2.50244140625,0.0,-0.1220703125,0.06103515625
10:47:20.064, 1.67958984375,-0.014355468750000001,9.5224609375,2.73232421875,-0.6986328125000001,9.40283203125,-1.3427734375,-0.244140625,2.86865234375,0.0,0.18310546875,0.0
10:47:20.169, 1.6269531250000002,-0.07177734375,9.56552734375,2.737109375,-0.6412109375,9.383691406250001,0.1220703125,2.9296875,1.28173828125,-0.06103515625,0.0,0.0
10:47:20.279, 1.5168945312500002,-0.08134765625000001,9.8,2.775390625,-0.71298828125,9.40283203125,1.5869140625,2.86865234375,-1.03759765625,-0.1220703125,-0.06103515625,-0.06103515625
10:47:20.389, 1.50732421875,0.10527343750000001,9.694726562500001,2.7227539062500004,-0.6986328125000001,9.3693359375,-0.18310546875,0.0,-1.3427734375,0.06103515625,0.1220703125,-0.06103515625
10:47:20.499, 1.5216796875,-0.13398437500000002,9.6564453125,2.75146484375,-0.66513671875,9.383691406250001,-1.77001953125,-0.06103515625,2.685546875,0.0,0.0,-0.06103515625
10:47:20.610, 1.5503906250000001,-0.1244140625,9.68515625,2.6988281250000004,-0.66513671875,9.383691406250001,1.0986328125,-0.3662109375,-0.244140625,0.0,0.1220703125,-0.1220703125
10:47:20.719, 1.5264648437500001,0.0,9.60859375,2.7466796875000004,-0.708203125,9.3501953125,0.79345703125,0.1220703125,-2.74658203125,0.0,0.0,0.06103515625
10:47:20.830, 1.5647460937500002,0.02392578125,9.76171875,2.7466796875000004,-0.6986328125000001,9.37412109375,-1.220703125,0.3662109375,0.0,0.244140625,0.06103515625,0.0
10:47:20.941, 1.48818359375,-0.04306640625,9.68515625,2.75625,-0.64599609375,9.364550781250001,-0.3662109375,1.40380859375,0.54931640625,-0.06103515625,-0.244140625,0.06103515625
10:47:21.052, 1.4642578125,-0.06699218750000001,9.723437500000001,2.7466796875000004,-0.5598632812500001,9.35498046875,0.0,1.15966796875,-0.67138671875,-0.06103515625,0.9765625,0.0
10:47:21.163, 1.4546875000000001,-0.00478515625,9.68515625,2.7418945312500003,-0.6794921875000001,9.3310546875,-0.1220703125,0.732421875,-0.42724609375,-0.48828125,0.244140625,0.0
10:47:21.275, 1.39248046875,-0.06220703125,9.699511718750001,2.7418945312500003,-0.784765625,9.512890625,-0.48828125,1.220703125,0.732421875,0.54931640625,-0.244140625,0.1220703125
10:47:21.387, 1.4451171875000002,-0.06699218750000001,9.75693359375,2.78017578125,-0.6555664062500001,9.364550781250001,-0.54931640625,-0.30517578125,0.06103515625,-0.30517578125,0.18310546875,0.1220703125
10:47:21.496, 1.3685546875,-0.11962890625000001,9.66123046875,2.8184570312500004,-0.58857421875,9.857421875,-0.30517578125,1.15966796875,-0.3662109375,-1.28173828125,0.42724609375,-0.30517578125
10:47:21.600, 1.39248046875,0.0,9.8095703125,2.7466796875000004,-0.6507812500000001,9.532031250000001,0.3662109375,0.54931640625,-0.3662109375,0.732421875,-0.06103515625,-0.30517578125
10:47:21.711, 1.378125,-0.04306640625,9.56552734375,2.7227539062500004,-0.6747070312500001,9.3693359375,-0.3662109375,1.64794921875,0.30517578125,0.1220703125,0.0,-0.1220703125
10:47:21.821, 1.3733398437500002,-0.052636718750000006,9.8478515625,2.7466796875000004,-0.64599609375,9.460253906250001,0.18310546875,2.25830078125,0.48828125,0.06103515625,0.0,0.1220703125
10:47:21.933, 1.2872070312500001,-0.02392578125,9.579882812500001,2.737109375,-0.669921875,9.35498046875,-0.67138671875,1.40380859375,-1.03759765625,0.1220703125,0.06103515625,0.0
10:47:22.043, 1.2776367187500002,-0.10048828125,9.780859375,2.7849609375,-0.6890625,9.37412109375,-1.3427734375,1.28173828125,1.03759765625,0.1220703125,-0.06103515625,0.0
10:47:22.153, 1.21064453125,-0.153125,9.651660156250001,2.71318359375,-0.6412109375,9.4171875,-0.6103515625,0.732421875,1.40380859375,0.1220703125,0.1220703125,0.0
10:47:22.257, 1.15322265625,-0.2009765625,9.599023437500001,2.737109375,-0.63642578125,9.311914062500001,1.28173828125,2.9296875,-0.18310546875,-0.06103515625,0.06103515625,0.0
10:47:22.368, 1.1771484375,-0.014355468750000001,9.88134765625,2.75625,-0.66513671875,9.412402343750001,-0.54931640625,0.9765625,-1.5869140625,0.0,0.06103515625,0.0
10:47:22.479, 1.12451171875,-0.0765625,9.603808593750001,2.73232421875,-0.669921875,9.364550781250001,-0.18310546875,0.42724609375,0.3662109375,0.0,0.0,-0.1220703125
10:47:22.589, 1.129296875,-0.16748046875,9.8478515625,2.76103515625,-0.66513671875,9.388476562500001,-1.220703125,1.03759765625,1.52587890625,-0.06103515625,0.0,-0.06103515625
10:47:22.700, 1.10537109375,-0.153125,9.70908203125,2.7275390625,-0.6603515625,9.37412109375,-0.42724609375,-0.18310546875,0.0,0.0,0.0,0.0
10:47:22.811, 1.06708984375,-0.11962890625000001,9.603808593750001,2.75625,-0.66513671875,9.3693359375,0.6103515625,0.42724609375,-0.30517578125,0.0,0.0,0.0
10:47:22.921, 1.06708984375,-0.17705078125,9.80478515625,2.78017578125,-0.68427734375,9.34541015625,-0.79345703125,0.9765625,0.42724609375,0.0,0.0,0.0
10:47:23.031, 1.0479492187500001,-0.15791015625000002,9.704296875,2.7275390625,-0.68427734375,9.407617187500001,-0.54931640625,0.42724609375,0.6103515625,0.0,0.0,0.0
10:47:23.142, 1.0144531250000002,-0.19140625,9.73779296875,2.75146484375,-0.6794921875000001,9.412402343750001,0.244140625,0.54931640625,0.48828125,0.0,0.0,0.0
10:47:23.252, 1.0240234375000001,-0.19140625,9.78564453125,2.75146484375,-0.6794921875000001,9.39326171875,0.6103515625,0.0,-0.91552734375,0.0,0.0,0.0
10:47:23.363, 1.00966796875,-0.06699218750000001,9.646875000000001,2.70361328125,-0.6603515625,9.383691406250001,0.732421875,-0.54931640625,-0.732421875,0.0,0.0,0.0
10:47:23.473, 1.0431640625,-0.12919921875,9.78564453125,2.7418945312500003,-0.6555664062500001,9.340625000000001,-0.3662109375,0.06103515625,0.54931640625,0.0,0.0,0.0
10:47:23.584, 1.0383789062500002,-0.153125,9.699511718750001,2.7179687500000003,-0.6555664062500001,9.37412109375,0.30517578125,0.244140625,0.18310546875,0.0,0.0,0.0
10:47:23.696, 1.03359375,-0.13876953125000002,9.72822265625,2.7275390625,-0.6747070312500001,9.37412109375,-0.244140625,0.0,0.3662109375,0.0,0.0,0.0
10:47:23.808, 1.02880859375,-0.17705078125,9.73779296875,2.71318359375,-0.6412109375,9.335839843750001,-0.48828125,0.54931640625,0.244140625,0.0,0.0,0.0
10:47:23.920, 1.0240234375000001,-0.1244140625,9.76171875,2.7945312500000004,-0.69384765625,9.398046875,0.30517578125,0.54931640625,0.91552734375,0.0,0.0,0.0
10:47:24.031, 1.01923828125,-0.153125,9.78564453125,2.7275390625,-0.69384765625,9.34541015625,-0.18310546875,-0.1220703125,0.3662109375,0.0,0.0,0.0
10:47:24.142, 1.01923828125,-0.2009765625,9.7521484375,2.76103515625,-0.6316406250000001,9.383691406250001,-1.15966796875,0.91552734375,0.8544921875,0.0,0.0,0.0
10:47:24.246, 1.01923828125,-0.23447265625000002,9.76171875,2.7179687500000003,-0.69384765625,9.40283203125,1.220703125,-0.3662109375,-0.54931640625,0.0,0.0,0.0
10:47:24.356, 1.0144531250000002,-0.06699218750000001,9.704296875,2.7179687500000003,-0.69384765625,9.37412109375,-0.1220703125,0.54931640625,-1.28173828125,0.0,0.0,0.0
10:47:24.467, 0.97138671875,-0.22490234375,9.780859375,2.7849609375,-0.64599609375,9.42197265625,-0.79345703125,0.42724609375,0.9765625,0.0,0.0,0.0
10:47:24.579, 0.9953125,-0.21533203125000003,9.723437500000001,2.737109375,-0.6507812500000001,9.388476562500001,0.54931640625,-0.732421875,-0.18310546875,0.0,-0.06103515625,0.06103515625
10:47:24.690, 0.9905273437500001,-0.11962890625000001,9.666015625,2.76103515625,-0.6794921875000001,9.3693359375,0.48828125,-0.18310546875,-1.220703125,-0.1220703125,0.0,0.0
10:47:24.801, 1.03359375,-0.153125,9.76171875,2.775390625,-0.6794921875000001,9.383691406250001,-0.54931640625,-0.91552734375,0.3662109375,0.1220703125,0.1220703125,-0.06103515625
10:47:24.912, 1.0144531250000002,-0.14833984375,9.675585937500001,2.75146484375,-0.66513671875,9.37890625,-0.9765625,0.06103515625,1.03759765625,-0.30517578125,0.0,0.0
10:47:25.021, 1.0479492187500001,-0.20576171875000002,9.78564453125,2.7227539062500004,-0.6794921875000001,9.388476562500001,0.6103515625,0.42724609375,0.30517578125,0.06103515625,0.18310546875,-0.244140625
10:47:25.132, 1.0048828125,-0.13398437500000002,9.646875000000001,2.73232421875,-0.6507812500000001,9.364550781250001,0.0,0.06103515625,-1.5869140625,-0.06103515625,0.0,0.0
10:47:25.242, 0.9187500000000001,-0.26796875000000003,9.51767578125,2.7658203125000003,-0.6603515625,9.407617187500001,-0.18310546875,15.07568359375,-1.953125,0.0,-0.1220703125,0.0
10:47:25.352, 0.5550781250000001,-0.17705078125,10.0392578125,2.78017578125,-0.68427734375,9.4171875,0.42724609375,8.11767578125,-2.9296875,0.244140625,0.1220703125,-0.1220703125
10:47:25.463, 0.31582031250000003,-0.18183593750000002,9.819140625000001,2.737109375,-0.66513671875,9.39326171875,2.38037109375,1.64794921875,-4.21142578125,0.1220703125,0.0,0.0
10:47:25.575, 0.52158203125,-0.019140625,9.962695312500001,2.7706054687500004,-0.6890625,9.39326171875,1.28173828125,-3.23486328125,-2.9296875,-0.1220703125,0.0,-0.18310546875
10:47:25.685, 0.63642578125,0.16748046875,9.6373046875,2.7083984375,-0.6890625,9.3501953125,-0.244140625,-4.5166015625,1.3427734375,0.0,0.1220703125,0.0
10:47:25.795, 0.74169921875,-0.0765625,9.72822265625,2.73232421875,-0.68427734375,9.407617187500001,-3.662109375,-1.953125,4.8828125,0.06103515625,0.0,-0.06103515625
10:47:25.905, 0.76083984375,-0.2966796875,9.694726562500001,2.76103515625,-0.6794921875000001,9.359765625000001,-1.52587890625,0.0,4.39453125,0.06103515625,0.06103515625,0.0
10:47:26.015, 0.71298828125,-0.20576171875000002,9.72822265625,2.7418945312500003,-0.6986328125000001,9.383691406250001,0.79345703125,1.03759765625,-1.28173828125,0.1220703125,0.0,-0.06103515625
10:47:26.127, 0.6316406250000001,-0.11962890625000001,9.8095703125,2.7275390625,-0.6794921875000001,9.407617187500001,-0.6103515625,1.220703125,-1.0986328125,0.0,0.1220703125,0.0
10:47:26.230, 0.6268554687500001,-0.22968750000000002,9.76171875,2.71318359375,-0.6603515625,9.388476562500001,0.48828125,0.3662109375,2.197265625,0.0,-0.06103515625,-0.1220703125
10:47:26.341, 0.6555664062500001,-0.21533203125000003,9.72822265625,2.737109375,-0.6794921875000001,9.40283203125,1.220703125,0.42724609375,-1.46484375,-0.06103515625,0.0,0.0
10:47:26.451, 0.6603515625,-0.03828125,9.80478515625,2.75625,-0.68427734375,9.359765625000001,-0.30517578125,0.67138671875,-1.40380859375,0.0,0.0,0.0
10:47:26.562, 0.6268554687500001,-0.11962890625000001,9.747363281250001,2.75625,-0.66513671875,9.388476562500001,-1.03759765625,-0.30517578125,1.8310546875,0.0,0.06103515625,0.0
10:47:26.673, 0.6077148437500001,-0.2583984375,9.80478515625,2.737109375,-0.6555664062500001,9.40283203125,-0.3662109375,0.1220703125,1.708984375,0.0,0.0,0.0
10:47:26.783, 0.6316406250000001,-0.2009765625,9.8478515625,2.7466796875000004,-0.6603515625,9.37890625,0.18310546875,-0.3662109375,-0.54931640625,0.0,0.0,0.0
10:47:26.894, 0.66513671875,-0.11484375000000001,9.699511718750001,2.7466796875000004,-0.68427734375,9.4267578125,0.67138671875,-1.953125,0.3662109375,0.0,0.0,0.0
10:47:27.004, 0.7464843750000001,-0.172265625,9.68994140625,2.7275390625,-0.708203125,9.3310546875,-0.79345703125,-0.42724609375,0.6103515625,0.0,0.0,0.0
10:47:27.114, 0.6794921875000001,-0.23447265625000002,9.80478515625,2.75146484375,-0.6316406250000001,9.40283203125,-0.6103515625,1.708984375,0.30517578125,0.0,0.0,0.0
10:47:27.224, 0.59814453125,-0.21533203125000003,9.790429687500001,2.73232421875,-0.66513671875,9.383691406250001,0.244140625,0.6103515625,0.06103515625,0.0,0.0,0.0
10:47:27.334, 0.57421875,-0.10048828125,9.80478515625,2.7179687500000003,-0.6986328125000001,9.398046875,0.244140625,-0.1220703125,-0.9765625,0.0,0.0,0.0
10:47:27.444, 0.6316406250000001,-0.095703125,9.73779296875,2.737109375,-0.669921875,9.412402343750001,-1.953125,-1.52587890625,1.15966796875,0.0,0.0,0.0
10:47:27.570, 0.69384765625,-0.29189453125000003,9.704296875,2.7179687500000003,-0.6603515625,9.388476562500001,0.42724609375,-0.48828125,0.0,0.0,0.06103515625,0.0
10:47:27.681, 0.7177734375,-0.21054687500000002,9.72822265625,2.737109375,-0.7034179687500001,9.388476562500001,0.67138671875,-0.6103515625,-0.79345703125,-0.1220703125,-0.18310546875,0.0
10:47:27.791, 0.6555664062500001,-0.19140625,9.83349609375,2.7418945312500003,-0.6747070312500001,9.383691406250001,-0.91552734375,-0.18310546875,0.18310546875,0.1220703125,0.18310546875,-0.1220703125
10:47:27.901, 0.6507812500000001,-0.2966796875,9.718652343750001,2.7418945312500003,-0.6603515625,9.3693359375,0.0,-0.30517578125,0.42724609375,0.06103515625,0.0,0.0
10:47:28.011, 0.669921875,-0.1435546875,9.73779296875,2.73232421875,-0.68427734375,9.407617187500001,1.953125,-1.953125,-1.89208984375,-0.06103515625,0.0,0.06103515625
10:47:28.121, 0.7560546875,-0.11005859375,9.75693359375,2.75146484375,-0.7225585937500001,9.388476562500001,0.1220703125,-1.77001953125,-0.48828125,-0.06103515625,0.0,0.06103515625
10:47:28.225, 0.80869140625,-0.18183593750000002,9.771289062500001,2.78017578125,-0.6747070312500001,9.40283203125,-0.1220703125,-1.52587890625,1.3427734375,0.18310546875,0.0,-0.06103515625
10:47:28.336, 0.8374023437500001,-0.2201171875,9.666015625,2.73232421875,-0.68427734375,9.359765625000001,-0.06103515625,-0.06103515625,0.67138671875,0.0,-0.06103515625,0.0
10:47:28.445, 0.784765625,-0.13398437500000002,9.76171875,2.7418945312500003,-0.69384765625,9.431542968750001,0.1220703125,1.28173828125,-0.42724609375,0.0,0.0,0.1220703125
10:47:28.556, 0.7704101562500001,-0.16748046875,9.814355468750001,2.7466796875000004,-0.68427734375,9.37890625,-2.197265625,0.42724609375,0.91552734375,0.0,0.0,0.0
10:47:28.666, 0.6890625,-0.2966796875,9.77607421875,2.75146484375,-0.6603515625,9.39326171875,0.79345703125,1.15966796875,0.18310546875,0.0,0.0,0.0
10:47:28.777, 0.669921875,-0.16748046875,9.85263671875,2.7418945312500003,-0.6747070312500001,9.364550781250001,0.8544921875,0.42724609375,-2.685546875,0.0,0.0,0.0
10:47:28.888, 0.708203125,-0.095703125,9.7138671875,2.7418945312500003,-0.6986328125000001,9.39326171875,-0.3662109375,-1.5869140625,0.54931640625,0.0,0.0,0.0
10:47:29.000, 0.74169921875,-0.2583984375,9.77607421875,2.7466796875000004,-0.69384765625,9.40283203125,-1.46484375,0.0,2.38037109375,0.0,0.0,0.0
10:47:29.113, 0.7560546875,-0.28232421875,9.7521484375,2.7418945312500003,-0.66513671875,9.398046875,0.79345703125,-0.91552734375,-0.1220703125,0.0,0.0,0.0
10:47:29.223, 0.7512695312500001,-0.10527343750000001,9.68994140625,2.73232421875,-0.6794921875000001,9.398046875,0.8544921875,-0.732421875,-2.197265625,0.0,0.0,0.0
10:47:29.334, 0.73212890625,-0.17705078125,9.7521484375,2.76103515625,-0.6747070312500001,9.383691406250001,-1.5869140625,0.18310546875,2.3193359375,0.0,0.0,0.0
10:47:29.446, 0.76083984375,-0.26318359375,9.68037109375,2.73232421875,-0.6507812500000001,9.407617187500001,0.18310546875,-0.18310546875,0.91552734375,0.0,0.0,0.0
10:47:29.556, 0.74169921875,-0.19140625,9.862207031250001,2.75146484375,-0.6747070312500001,9.4171875,0.0,0.79345703125,-0.79345703125,0.0,0.0,0.0
10:47:29.668, 0.6603515625,-0.172265625,9.83349609375,2.7179687500000003,-0.6747070312500001,9.3693359375,0.0,0.244140625,0.48828125,0.0,0.0,0.0
10:47:29.781, 0.7704101562500001,-0.21054687500000002,9.7138671875,2.7658203125000003,-0.64599609375,9.37412109375,-0.1220703125,-0.3662109375,0.91552734375,0.0,0.0,0.0
10:47:29.893, 0.7369140625,-0.24404296875,9.766503906250001,2.75146484375,-0.66513671875,9.40283203125,-0.3662109375,0.30517578125,0.06103515625,0.0,0.0,0.0
10:47:30.004, 0.7034179687500001,-0.172265625,9.790429687500001,2.7418945312500003,-0.6986328125000001,9.383691406250001,0.244140625,-0.06103515625,-0.18310546875,0.0,0.0,0.0
10:47:30.116, 0.7512695312500001,-0.28232421875,9.814355468750001,2.75146484375,-0.6747070312500001,9.37412109375,-1.03759765625,0.0,1.3427734375,0.0,0.0,0.0
10:47:30.220, 0.71298828125,-0.24404296875,9.80478515625,2.73232421875,-0.669921875,9.398046875,0.48828125,0.0,-0.1220703125,0.0,0.0,0.0
10:47:30.331, 0.7369140625,-0.12919921875,9.718652343750001,2.75146484375,-0.68427734375,9.383691406250001,0.0,-0.06103515625,-0.9765625,0.0,0.0,0.0
10:47:30.441, 0.7177734375,-0.19619140625,9.72822265625,2.7658203125000003,-0.669921875,9.37412109375,-1.708984375,0.6103515625,1.64794921875,0.0,0.0,0.0
10:47:30.551, 0.69384765625,-0.27275390625,9.76171875,2.737109375,-0.66513671875,9.407617187500001,-2.197265625,-0.1220703125,1.953125,0.0,0.0,0.0
10:47:30.661, 0.7177734375,-0.26796875000000003,9.7521484375,2.7275390625,-0.6794921875000001,9.388476562500001,-1.708984375,-0.244140625,2.44140625,0.0,0.0,0.0
10:47:30.771, 0.7177734375,-0.39716796875000004,9.72822265625,2.75146484375,-0.6794921875000001,9.412402343750001,0.0,0.42724609375,0.8544921875,0.0,0.0,0.0
10:47:30.882, 0.6890625,-0.287109375,9.73779296875,2.7466796875000004,-0.6747070312500001,9.364550781250001,-0.91552734375,0.3662109375,-0.732421875,0.0,0.0,0.0
10:47:30.993, 0.669921875,-0.35888671875,9.771289062500001,2.7706054687500004,-0.669921875,9.407617187500001,-0.67138671875,0.48828125,1.3427734375,0.0,0.0,0.0
10:47:31.102, 0.7034179687500001,-0.36845703125,9.7330078125,2.7275390625,-0.6747070312500001,9.37412109375,-0.42724609375,0.3662109375,1.03759765625,0.0,0.0,0.0
10:47:31.212, 0.6507812500000001,-0.36845703125,9.75693359375,2.76103515625,-0.669921875,9.388476562500001,-0.48828125,0.79345703125,0.06103515625,0.0,0.0,0.0
10:47:31.322, 0.6507812500000001,-0.36845703125,9.7330078125,2.73232421875,-0.6507812500000001,9.37412109375,0.0,0.18310546875,0.30517578125,0.0,0.0,0.0
10:47:31.433, 0.6412109375,-0.35888671875,9.82392578125,2.7418945312500003,-0.669921875,9.37412109375,-0.3662109375,-0.18310546875,-0.3662109375,0.0,0.0,0.0
10:47:31.543, 0.64599609375,-0.35888671875,9.723437500000001,2.75146484375,-0.6794921875000001,9.412402343750001,1.0986328125,0.0,0.0,0.0,0.0,0.0
10:47:31.653, 0.63642578125,-0.3349609375,9.8095703125,2.7179687500000003,-0.71298828125,9.4171875,0.0,-0.3662109375,0.48828125,0.0,0.0,0.0
10:47:31.764, 0.669921875,-0.3923828125,9.68037109375,2.7658203125000003,-0.6747070312500001,9.42197265625,-0.06103515625,0.0,0.42724609375,0.0,0.0,0.0
10:47:31.874, 0.6890625,-0.45937500000000003,9.938769531250001,2.75625,-0.68427734375,9.383691406250001,-1.03759765625,-0.54931640625,0.0,0.0,0.0,0.0
10:47:31.984, 0.64599609375,-0.3349609375,9.68037109375,2.7418945312500003,-0.6747070312500001,9.37890625,1.28173828125,0.30517578125,-1.03759765625,0.0,0.0,0.0
10:47:32.095, 0.6555664062500001,-0.2583984375,9.8765625,2.75625,-0.69384765625,9.40283203125,-0.79345703125,0.30517578125,0.0,0.0,0.0,0.0
10:47:32.198, 0.63642578125,-0.3923828125,9.747363281250001,2.75146484375,-0.69384765625,9.37890625,-1.0986328125,-0.3662109375,1.28173828125,0.0,0.0,0.0
10:47:32.308, 0.63642578125,-0.44501953125000004,9.771289062500001,2.75146484375,-0.6555664062500001,9.407617187500001,0.732421875,0.3662109375,-0.30517578125,0.0,0.0,0.0
10:47:32.418, 0.6794921875000001,-0.43066406250000006,9.83349609375,2.737109375,-0.6986328125000001,9.40283203125,0.48828125,0.06103515625,-0.91552734375,0.0,0.0,0.0
10:47:32.529, 0.6316406250000001,-0.287109375,9.7521484375,2.7466796875000004,-0.6794921875000001,9.383691406250001,-0.18310546875,0.0,-0.48828125,0.0,0.0,0.0
10:47:32.639, 0.63642578125,-0.3541015625,9.795214843750001,2.7658203125000003,-0.669921875,9.4171875,-0.30517578125,0.0,1.46484375,0.0,0.0,0.0
10:47:32.750, 0.6077148437500001,-0.36367187500000003,9.7330078125,2.7466796875000004,-0.66513671875,9.39326171875,0.48828125,-0.244140625,-0.54931640625,0.0,0.0,0.0
10:47:32.860, 0.6507812500000001,-0.27275390625,9.780859375,2.73232421875,-0.6890625,9.39326171875,-0.67138671875,0.0,0.0,0.0,0.0,0.0
10:47:32.970, 0.6316406250000001,-0.36367187500000003,9.694726562500001,2.7418945312500003,-0.6794921875000001,9.40283203125,0.244140625,0.0,0.732421875,0.0,0.0,0.0
10:47:33.082, 0.64599609375,-0.43066406250000006,9.766503906250001,2.75146484375,-0.6747070312500001,9.39326171875,0.30517578125,-0.06103515625,-0.8544921875,0.0,0.0,0.0
10:47:33.193, 0.6220703125,-0.32539062500000004,9.790429687500001,2.7466796875000004,-0.6890625,9.398046875,0.6103515625,0.0,-0.732421875,0.0,0.0,0.0
10:47:33.304, 0.6125,-0.31582031250000003,9.73779296875,2.73232421875,-0.6507812500000001,9.359765625000001,-0.244140625,-0.06103515625,0.79345703125,0.0,0.0,0.0
10:47:33.415, 0.6747070312500001,-0.440234375,9.843066406250001,2.7418945312500003,-0.6747070312500001,9.412402343750001,-0.18310546875,0.06103515625,-0.732421875,0.0,0.0,0.0
10:47:33.526, 0.63642578125,-0.3923828125,9.66123046875,2.737109375,-0.69384765625,9.40283203125,0.1220703125,0.67138671875,-0.30517578125,0.0,0.0,0.0
10:47:33.636, 0.6555664062500001,-0.30625,9.8287109375,2.76103515625,-0.7034179687500001,9.412402343750001,-0.06103515625,0.18310546875,-0.48828125,0.0,0.0,0.0
10:47:33.746, 0.63642578125,-0.31582031250000003,9.723437500000001,2.7706054687500004,-0.66513671875,9.359765625000001,0.1220703125,-0.30517578125,0.30517578125,0.0,0.0,0.0
10:47:33.856, 0.6077148437500001,-0.36845703125,9.747363281250001,2.7418945312500003,-0.6747070312500001,9.37890625,0.1220703125,0.0,0.54931640625,0.0,0.0,0.0
10:47:33.966, 0.6077148437500001,-0.31582031250000003,9.747363281250001,2.76103515625,-0.66513671875,9.407617187500001,0.42724609375,-0.06103515625,-0.1220703125,0.0,0.0,0.0
10:47:34.076, 0.6316406250000001,-0.38759765625000003,9.72822265625,2.737109375,-0.669921875,9.340625000000001,0.18310546875,0.42724609375,0.3662109375,0.0,0.0,0.0
10:47:34.180, 0.64599609375,-0.34931640625000004,9.742578125000001,2.7466796875000004,-0.6890625,9.40283203125,-0.244140625,-0.30517578125,-0.244140625,0.0,0.0,0.0
10:47:34.290, 0.61728515625,-0.32060546875,9.8,2.7418945312500003,-0.68427734375,9.388476562500001,0.244140625,0.30517578125,0.244140625,0.0,0.0,0.0
10:47:34.400, 0.61728515625,-0.31582031250000003,9.766503906250001,2.737109375,-0.66513671875,9.37412109375,0.06103515625,-0.06103515625,-0.18310546875,0.0,0.0,0.0
10:47:34.510, 0.63642578125,-0.36845703125,9.77607421875,2.75146484375,-0.71298828125,9.398046875,-0.3662109375,0.18310546875,0.54931640625,0.0,0.0,0.0
10:47:34.620, 0.6077148437500001,-0.440234375,9.73779296875,2.7275390625,-0.66513671875,9.359765625000001,-0.18310546875,0.244140625,0.732421875,0.0,0.0,0.0
10:47:34.730, 0.6220703125,-0.33974609375000003,9.742578125000001,2.7706054687500004,-0.6986328125000001,9.407617187500001,0.0,-0.42724609375,-1.0986328125,0.0,0.0,0.0
10:47:34.839, 0.63642578125,-0.30625,9.82392578125,2.7418945312500003,-0.69384765625,9.383691406250001,0.244140625,0.30517578125,0.42724609375,0.0,0.0,0.0
10:47:34.949, 0.6077148437500001,-0.36845703125,9.76171875,2.73232421875,-0.6603515625,9.37890625,0.3662109375,-0.1220703125,-0.06103515625,0.0,0.0,0.0
10:47:35.060, 0.6316406250000001,-0.32539062500000004,9.780859375,2.7658203125000003,-0.66513671875,9.39326171875,0.1220703125,-0.30517578125,0.0,0.0,0.0,0.0
10:47:35.171, 0.59814453125,-0.32060546875,9.7330078125,2.7418945312500003,-0.6794921875000001,9.34541015625,0.0,-0.18310546875,0.18310546875,0.0,0.0,0.0
10:47:35.281, 0.63642578125,-0.401953125,9.75693359375,2.75146484375,-0.6747070312500001,9.4171875,0.244140625,0.18310546875,0.30517578125,0.0,0.0,0.0
10:47:35.393, 0.61728515625,-0.26796875000000003,9.747363281250001,2.7227539062500004,-0.6412109375,9.383691406250001,-0.1220703125,0.6103515625,-0.3662109375,0.0,0.0,0.0
10:47:35.503, 0.6268554687500001,-0.3349609375,9.8,2.75625,-0.68427734375,9.383691406250001,0.0,0.18310546875,0.3662109375,0.0,0.0,0.0
10:47:35.613, 0.6220703125,-0.31103515625,9.68994140625,2.73232421875,-0.7034179687500001,9.383691406250001,-0.3662109375,0.18310546875,0.1220703125,0.0,0.0,0.0
10:47:35.739, 0.63642578125,-0.36845703125,9.742578125000001,2.75146484375,-0.6890625,9.383691406250001,-0.6103515625,0.18310546875,0.48828125,0.0,0.0,0.0
10:47:35.849, 0.6029296875000001,-0.3923828125,9.814355468750001,2.7275390625,-0.6507812500000001,9.35498046875,0.0,0.30517578125,-0.1220703125,0.0,0.0,0.0
10:47:35.959, 0.57421875,-0.35888671875,9.790429687500001,2.737109375,-0.6747070312500001,9.388476562500001,0.79345703125,0.42724609375,-0.9765625,0.0,0.0,0.0
10:47:36.070, 0.5837890625000001,-0.31103515625,9.77607421875,2.7083984375,-0.6507812500000001,9.398046875,-0.42724609375,0.06103515625,0.1220703125,0.0,0.0,0.0
10:47:36.173, 0.6029296875000001,-0.38759765625000003,9.704296875,2.7418945312500003,-0.6507812500000001,9.37890625,-0.30517578125,-0.1220703125,0.9765625,0.0,0.0,0.0
10:47:36.283, 0.6077148437500001,-0.36367187500000003,9.780859375,2.7466796875000004,-0.68427734375,9.40283203125,0.54931640625,-0.30517578125,-0.732421875,0.0,0.0,0.0
10:47:36.394, 0.63642578125,-0.26796875000000003,9.771289062500001,2.7418945312500003,-0.6747070312500001,9.37890625,0.48828125,-0.3662109375,-0.48828125,0.0,0.0,0.0
10:47:36.505, 0.6316406250000001,-0.32060546875,9.819140625000001,2.76103515625,-0.669921875,9.39326171875,-0.1220703125,-0.30517578125,0.6103515625,0.0,0.0,0.0
10:47:36.616, 0.6220703125,-0.30625,9.70908203125,2.73232421875,-0.669921875,9.35498046875,0.67138671875,0.244140625,0.1220703125,0.0,0.0,0.0
10:47:36.727, 0.6125,-0.26796875000000003,9.83349609375,2.75146484375,-0.6890625,9.412402343750001,-0.1220703125,-0.42724609375,-1.3427734375,0.0,0.0,0.0
10:47:36.838, 0.61728515625,-0.27753906250000004,9.694726562500001,2.737109375,-0.7034179687500001,9.40283203125,-0.244140625,0.30517578125,0.732421875,0.0,0.0,0.0
10:47:36.948, 0.59814453125,-0.30625,9.780859375,2.7706054687500004,-0.6890625,9.388476562500001,-0.67138671875,0.54931640625,0.06103515625,0.0,0.0,0.0
10:47:37.058, 0.593359375,-0.2966796875,9.7330078125,2.75146484375,-0.669921875,9.37412109375,0.0,0.06103515625,0.06103515625,0.0,0.0,0.0
10:47:37.168, 0.6029296875000001,-0.31582031250000003,9.77607421875,2.737109375,-0.669921875,9.383691406250001,-0.06103515625,0.18310546875,0.3662109375,0.0,0.0,0.0
10:47:37.278, 0.61728515625,-0.42587890625,9.814355468750001,2.73232421875,-0.7034179687500001,9.40283203125,-0.79345703125,-0.42724609375,0.30517578125,0.0,0.0,0.0
10:47:37.389, 0.59814453125,-0.30625,9.75693359375,2.71318359375,-0.6603515625,9.383691406250001,-0.48828125,-0.48828125,0.0,0.0,0.0,0.0
10:47:37.499, 0.6220703125,-0.34931640625000004,9.72822265625,2.737109375,-0.669921875,9.40283203125,0.732421875,-0.30517578125,0.30517578125,0.0,0.0,0.0
10:47:37.609, 0.6268554687500001,-0.3349609375,9.78564453125,2.7466796875000004,-0.6747070312500001,9.388476562500001,0.30517578125,-0.3662109375,-0.48828125,0.0,0.0,0.0
10:47:37.719, 0.61728515625,-0.28232421875,9.7330078125,2.75146484375,-0.6603515625,9.39326171875,-0.79345703125,0.3662109375,0.48828125,0.0,0.0,0.0
10:47:37.830, 0.64599609375,-0.440234375,9.8095703125,2.7418945312500003,-0.6747070312500001,9.39326171875,-0.67138671875,0.0,0.30517578125,0.0,0.0,0.0
10:47:37.941, 0.58857421875,-0.34453125,9.73779296875,2.7275390625,-0.6555664062500001,9.39326171875,0.42724609375,-0.244140625,-0.54931640625,0.0,0.0,0.0
10:47:38.050, 0.6268554687500001,-0.3349609375,9.8095703125,2.7658203125000003,-0.669921875,9.412402343750001,0.18310546875,-0.42724609375,0.0,0.0,0.0,0.0
10:47:38.170, 0.59814453125,-0.36367187500000003,9.68994140625,2.7466796875000004,-0.68427734375,9.388476562500001,-0.42724609375,-0.244140625,0.30517578125,0.0,0.0,0.0
10:47:38.280, 0.66513671875,-0.3541015625,9.8095703125,2.73232421875,-0.6507812500000001,9.37412109375,0.3662109375,0.1220703125,-0.42724609375,0.0,0.0,0.0
10:47:38.392, 0.6316406250000001,-0.32060546875,9.790429687500001,2.73232421875,-0.6794921875000001,9.37412109375,-0.67138671875,-0.30517578125,0.30517578125,0.0,0.0,0.0
10:47:38.503, 0.59814453125,-0.32539062500000004,9.795214843750001,2.75146484375,-0.69384765625,9.3693359375,0.244140625,0.0,0.1220703125,0.0,0.0,0.0
10:47:38.613, 0.6220703125,-0.2966796875,9.718652343750001,2.70361328125,-0.6890625,9.39326171875,0.1220703125,0.0,-0.30517578125,0.0,0.0,0.0
10:47:38.723, 0.57421875,-0.36367187500000003,9.75693359375,2.7466796875000004,-0.6794921875000001,9.388476562500001,-0.67138671875,-0.06103515625,0.6103515625,0.0,0.0,0.0
10:47:38.833, 0.6316406250000001,-0.3349609375,9.77607421875,2.7706054687500004,-0.68427734375,9.383691406250001,0.0,-0.1220703125,-0.8544921875,0.0,0.0,0.0
10:47:38.942, 0.61728515625,-0.287109375,9.747363281250001,2.7658203125000003,-0.708203125,9.39326171875,0.244140625,-0.732421875,-0.8544921875,0.0,0.0,0.0
10:47:39.052, 0.6316406250000001,-0.36845703125,9.747363281250001,2.7227539062500004,-0.669921875,9.35498046875,-0.67138671875,0.0,0.54931640625,0.0,0.0,0.0
10:47:39.163, 0.6316406250000001,-0.3349609375,9.771289062500001,2.75146484375,-0.669921875,9.40283203125,0.3662109375,0.3662109375,-0.18310546875,0.0,0.0,0.0
10:47:39.273, 0.57421875,-0.30625,9.675585937500001,2.7418945312500003,-0.6747070312500001,9.39326171875,0.1220703125,0.42724609375,-0.06103515625,0.0,0.0,0.0
10:47:39.383, 0.5790039062500001,-0.3349609375,9.82392578125,2.78017578125,-0.6747070312500001,9.388476562500001,-0.79345703125,-0.732421875,-0.48828125,0.0,0.0,0.0
10:47:39.493, 0.61728515625,-0.26318359375,9.723437500000001,2.7275390625,-0.669921875,9.388476562500001,0.244140625,-1.15966796875,0.91552734375,0.0,0.0,0.0
10:47:39.603, 0.7177734375,-0.33974609375000003,9.66123046875,2.75625,-0.6890625,9.383691406250001,0.732421875,-1.52587890625,-0.732421875,0.0,0.0,0.0
10:47:39.712, 0.6986328125000001,-0.33017578125,9.723437500000001,2.75146484375,-0.66513671875,9.3693359375,0.67138671875,0.91552734375,-1.3427734375,0.0,0.0,0.0
10:47:39.839, 0.50244140625,-0.2009765625,9.9052734375,2.7466796875000004,-0.6555664062500001,9.407617187500001,1.15966796875,4.57763671875,0.30517578125,0.0,0.0,0.0
10:47:39.948, 0.46894531250000004,-0.31582031250000003,9.9435546875,2.7418945312500003,-0.66513671875,9.407617187500001,2.25830078125,0.42724609375,-0.67138671875,0.0,0.0,0.0
